STUDYID,DOMAIN,USUBJID,EGSEQ,EGTESTCD,EGTEST,EGORRES,EGORRESU,EGSTRESC,EGSTRESN,EGSTRESU,EGBLFL,EGLOC,EGPOS,EGMETHOD,EGREASONND,EGSTAT,EGNRIND,VISIT,VISITNUM,EGDTC,EGDY,EGTPT,EGTPTNUM
STUDY001,EG,STUDY001-SUBJ0001,1,HR,Heart Rate,61.5,beats/min,61.5,61.5,beats/min,,CHEST,SUPINE,12-LEAD ECG,,NOT DONE,NORMAL,SCREENING,1,2025-08-01,-14,PREDOSE,1
STUDY001,EG,STUDY001-SUBJ0001,2,QT,QT Interval,376.8,msec,376.8,376.8,msec,,CHEST,SUPINE,12-LEAD ECG,,,NORMAL,SCREENING,1,2025-08-01,-14,PREDOSE,1
STUDY001,EG,STUDY001-SUBJ0001,3,QTC,QTc Interval,390.0,msec,390.0,390.0,msec,,CHEST,SUPINE,12-LEAD ECG,,,NORMAL,SCREENING,1,2025-08-01,-14,PREDOSE,1
STUDY001,EG,STUDY001-SUBJ0001,4,PR,PR Interval,141.5,msec,141.5,141.5,msec,,CHEST,SUPINE,12-LEAD ECG,,,NORMAL,SCREENING,1,2025-08-01,-14,PREDOSE,1
STUDY001,EG,STUDY001-SUBJ0001,5,QRS,QRS Duration,80.4,msec,80.4,80.4,msec,,CHEST,SUPINE,12-LEAD ECG,,,NORMAL,SCREENING,1,2025-08-01,-14,PREDOSE,1
STUDY001,EG,STUDY001-SUBJ0001,6,HR,Heart Rate,60.6,beats/min,60.6,60.6,beats/min,Y,CHEST,SUPINE,12-LEAD ECG,,,NORMAL,BASELINE,2,2025-08-15,1,PREDOSE,1
STUDY001,EG,STUDY001-SUBJ0001,7,QT,QT Interval,381.0,msec,381.0,381.0,msec,Y,CHEST,SUPINE,12-LEAD ECG,,,NORMAL,BASELINE,2,2025-08-15,1,PREDOSE,1
STUDY001,EG,STUDY001-SUBJ0001,8,QTC,QTc Interval,389.5,msec,389.5,389.5,msec,Y,CHEST,SUPINE,12-LEAD ECG,,,NORMAL,BASELINE,2,2025-08-15,1,PREDOSE,1
STUDY001,EG,STUDY001-SUBJ0001,9,PR,PR Interval,140.6,msec,140.6,140.6,msec,Y,CHEST,SUPINE,12-LEAD ECG,,,NORMAL,BASELINE,2,2025-08-15,1,PREDOSE,1
STUDY001,EG,STUDY001-SUBJ0001,10,QRS,QRS Duration,81.3,msec,81.3,81.3,msec,Y,CHEST,SUPINE,12-LEAD ECG,,,NORMAL,BASELINE,2,2025-08-15,1,PREDOSE,1
STUDY001,EG,STUDY001-SUBJ0001,11,HR,Heart Rate,61.7,beats/min,61.7,61.7,beats/min,,CHEST,SUPINE,12-LEAD ECG,,,NORMAL,WEEK 4,3,2025-09-11,28,PREDOSE,1
STUDY001,EG,STUDY001-SUBJ0001,12,QT,QT Interval,375.5,msec,375.5,375.5,msec,,CHEST,SUPINE,12-LEAD ECG,,,NORMAL,WEEK 4,3,2025-09-11,28,PREDOSE,1
STUDY001,EG,STUDY001-SUBJ0001,13,QTC,QTc Interval,390.0,msec,390.0,390.0,msec,,CHEST,SUPINE,12-LEAD ECG,,,NORMAL,WEEK 4,3,2025-09-11,28,PREDOSE,1
STUDY001,EG,STUDY001-SUBJ0001,14,PR,PR Interval,148.2,msec,148.2,148.2,msec,,CHEST,SUPINE,12-LEAD ECG,,,NORMAL,WEEK 4,3,2025-09-11,28,PREDOSE,1
STUDY001,EG,STUDY001-SUBJ0001,15,QRS,QRS Duration,88.0,msec,88.0,88.0,msec,,CHEST,SUPINE,12-LEAD ECG,,,NORMAL,WEEK 4,3,2025-09-11,28,PREDOSE,1
STUDY001,EG,STUDY001-SUBJ0001,16,HR,Heart Rate,57.2,beats/min,57.2,57.2,beats/min,,CHEST,SUPINE,12-LEAD ECG,,,LOW,WEEK 12,4,2025-11-06,84,PREDOSE,1
STUDY001,EG,STUDY001-SUBJ0001,17,QT,QT Interval,378.6,msec,378.6,378.6,msec,,CHEST,SUPINE,12-LEAD ECG,,,NORMAL,WEEK 12,4,2025-11-06,84,PREDOSE,1
STUDY001,EG,STUDY001-SUBJ0001,18,QTC,QTc Interval,386.6,msec,386.6,386.6,msec,,CHEST,SUPINE,12-LEAD ECG,,,NORMAL,WEEK 12,4,2025-11-06,84,PREDOSE,1
STUDY001,EG,STUDY001-SUBJ0001,19,PR,PR Interval,144.0,msec,144.0,144.0,msec,,CHEST,SUPINE,12-LEAD ECG,,,NORMAL,WEEK 12,4,2025-11-06,84,PREDOSE,1
STUDY001,EG,STUDY001-SUBJ0001,20,QRS,QRS Duration,82.5,msec,82.5,82.5,msec,,CHEST,SUPINE,12-LEAD ECG,,,NORMAL,WEEK 12,4,2025-11-06,84,PREDOSE,1
STUDY001,EG,STUDY001-SUBJ0002,1,HR,Heart Rate,58.8,beats/min,58.8,58.8,beats/min,,CHEST,SUPINE,12-LEAD ECG,,,LOW,SCREENING,1,2024-12-25,-14,PREDOSE,1
STUDY001,EG,STUDY001-SUBJ0002,2,QT,QT Interval,421.5,msec,421.5,421.5,msec,,CHEST,SUPINE,12-LEAD ECG,,,NORMAL,SCREENING,1,2024-12-25,-14,PREDOSE,1
STUDY001,EG,STUDY001-SUBJ0002,3,QTC,QTc Interval,409.7,msec,409.7,409.7,msec,,CHEST,SUPINE,12-LEAD ECG,,,NORMAL,SCREENING,1,2024-12-25,-14,PREDOSE,1
STUDY001,EG,STUDY001-SUBJ0002,4,PR,PR Interval,180.8,msec,180.8,180.8,msec,,CHEST,SUPINE,12-LEAD ECG,,,NORMAL,SCREENING,1,2024-12-25,-14,PREDOSE,1
STUDY001,EG,STUDY001-SUBJ0002,5,QRS,QRS Duration,91.0,msec,91.0,91.0,msec,,CHEST,SUPINE,12-LEAD ECG,,,NORMAL,SCREENING,1,2024-12-25,-14,PREDOSE,1
STUDY001,EG,STUDY001-SUBJ0002,6,HR,Heart Rate,65.1,beats/min,65.1,65.1,beats/min,Y,CHEST,SUPINE,12-LEAD ECG,,,NORMAL,BASELINE,2,2025-01-08,1,PREDOSE,1
STUDY001,EG,STUDY001-SUBJ0002,7,QT,QT Interval,423.4,msec,423.4,423.4,msec,Y,CHEST,SUPINE,12-LEAD ECG,,,NORMAL,BASELINE,2,2025-01-08,1,PREDOSE,1
STUDY001,EG,STUDY001-SUBJ0002,8,QTC,QTc Interval,410.1,msec,410.1,410.1,msec,Y,CHEST,SUPINE,12-LEAD ECG,,,NORMAL,BASELINE,2,2025-01-08,1,PREDOSE,1
STUDY001,EG,STUDY001-SUBJ0002,9,PR,PR Interval,181.4,msec,181.4,181.4,msec,Y,CHEST,SUPINE,12-LEAD ECG,,,NORMAL,BASELINE,2,2025-01-08,1,PREDOSE,1
STUDY001,EG,STUDY001-SUBJ0002,10,QRS,QRS Duration,86.6,msec,86.6,86.6,msec,Y,CHEST,SUPINE,12-LEAD ECG,,,NORMAL,BASELINE,2,2025-01-08,1,PREDOSE,1
STUDY001,EG,STUDY001-SUBJ0002,11,HR,Heart Rate,66.1,beats/min,66.1,66.1,beats/min,,CHEST,SUPINE,12-LEAD ECG,TECHNICAL FAILURE,,NORMAL,WEEK 4,3,2025-02-04,28,PREDOSE,1
STUDY001,EG,STUDY001-SUBJ0002,12,QT,QT Interval,428.5,msec,428.5,428.5,msec,,CHEST,SUPINE,12-LEAD ECG,,,NORMAL,WEEK 4,3,2025-02-04,28,PREDOSE,1
STUDY001,EG,STUDY001-SUBJ0002,13,QTC,QTc Interval,408.6,msec,408.6,408.6,msec,,CHEST,SUPINE,12-LEAD ECG,,,NORMAL,WEEK 4,3,2025-02-04,28,PREDOSE,1
STUDY001,EG,STUDY001-SUBJ0002,14,PR,PR Interval,174.3,msec,174.3,174.3,msec,,CHEST,SUPINE,12-LEAD ECG,,,NORMAL,WEEK 4,3,2025-02-04,28,PREDOSE,1
STUDY001,EG,STUDY001-SUBJ0002,15,QRS,QRS Duration,88.9,msec,88.9,88.9,msec,,CHEST,SUPINE,12-LEAD ECG,,,NORMAL,WEEK 4,3,2025-02-04,28,PREDOSE,1
STUDY001,EG,STUDY001-SUBJ0002,16,HR,Heart Rate,59.1,beats/min,59.1,59.1,beats/min,,CHEST,SUPINE,12-LEAD ECG,TECHNICAL FAILURE,,LOW,WEEK 12,4,2025-04-01,84,PREDOSE,1
STUDY001,EG,STUDY001-SUBJ0002,17,QT,QT Interval,428.6,msec,428.6,428.6,msec,,CHEST,SUPINE,12-LEAD ECG,,,NORMAL,WEEK 12,4,2025-04-01,84,PREDOSE,1
STUDY001,EG,STUDY001-SUBJ0002,18,QTC,QTc Interval,413.1,msec,413.1,413.1,msec,,CHEST,SUPINE,12-LEAD ECG,,,NORMAL,WEEK 12,4,2025-04-01,84,PREDOSE,1
STUDY001,EG,STUDY001-SUBJ0002,19,PR,PR Interval,176.5,msec,176.5,176.5,msec,,CHEST,SUPINE,12-LEAD ECG,,,NORMAL,WEEK 12,4,2025-04-01,84,PREDOSE,1
STUDY001,EG,STUDY001-SUBJ0002,20,QRS,QRS Duration,95.2,msec,95.2,95.2,msec,,CHEST,SUPINE,12-LEAD ECG,,,NORMAL,WEEK 12,4,2025-04-01,84,PREDOSE,1
STUDY001,EG,STUDY001-SUBJ0002,21,HR,Heart Rate,67.1,beats/min,67.1,67.1,beats/min,,CHEST,SUPINE,12-LEAD ECG,,,NORMAL,END OF TREATMENT,5,2025-05-27,140,PREDOSE,1
STUDY001,EG,STUDY001-SUBJ0002,22,QT,QT Interval,428.5,msec,428.5,428.5,msec,,CHEST,SUPINE,12-LEAD ECG,,,NORMAL,END OF TREATMENT,5,2025-05-27,140,PREDOSE,1
STUDY001,EG,STUDY001-SUBJ0002,23,QTC,QTc Interval,410.7,msec,410.7,410.7,msec,,CHEST,SUPINE,12-LEAD ECG,,,NORMAL,END OF TREATMENT,5,2025-05-27,140,PREDOSE,1
STUDY001,EG,STUDY001-SUBJ0002,24,PR,PR Interval,178.4,msec,178.4,178.4,msec,,CHEST,SUPINE,12-LEAD ECG,,,NORMAL,END OF TREATMENT,5,2025-05-27,140,PREDOSE,1
STUDY001,EG,STUDY001-SUBJ0002,25,QRS,QRS Duration,94.0,msec,94.0,94.0,msec,,CHEST,SUPINE,12-LEAD ECG,,NOT DONE,NORMAL,END OF TREATMENT,5,2025-05-27,140,PREDOSE,1
STUDY001,EG,STUDY001-SUBJ0003,1,HR,Heart Rate,70.1,beats/min,70.1,70.1,beats/min,,CHEST,SUPINE,12-LEAD ECG,,,NORMAL,SCREENING,1,2025-04-23,-14,PREDOSE,1
STUDY001,EG,STUDY001-SUBJ0003,2,QT,QT Interval,393.3,msec,393.3,393.3,msec,,CHEST,SUPINE,12-LEAD ECG,,,NORMAL,SCREENING,1,2025-04-23,-14,PREDOSE,1
STUDY001,EG,STUDY001-SUBJ0003,3,QTC,QTc Interval,419.0,msec,419.0,419.0,msec,,CHEST,SUPINE,12-LEAD ECG,,,NORMAL,SCREENING,1,2025-04-23,-14,PREDOSE,1
STUDY001,EG,STUDY001-SUBJ0003,4,PR,PR Interval,169.0,msec,169.0,169.0,msec,,CHEST,SUPINE,12-LEAD ECG,,,NORMAL,SCREENING,1,2025-04-23,-14,PREDOSE,1
STUDY001,EG,STUDY001-SUBJ0003,5,QRS,QRS Duration,96.3,msec,96.3,96.3,msec,,CHEST,SUPINE,12-LEAD ECG,,,NORMAL,SCREENING,1,2025-04-23,-14,PREDOSE,1
STUDY001,EG,STUDY001-SUBJ0003,6,HR,Heart Rate,66.9,beats/min,66.9,66.9,beats/min,Y,CHEST,SUPINE,12-LEAD ECG,,,NORMAL,BASELINE,2,2025-05-07,1,PREDOSE,1
STUDY001,EG,STUDY001-SUBJ0003,7,QT,QT Interval,392.3,msec,392.3,392.3,msec,Y,CHEST,SUPINE,12-LEAD ECG,,,NORMAL,BASELINE,2,2025-05-07,1,PREDOSE,1
STUDY001,EG,STUDY001-SUBJ0003,8,QTC,QTc Interval,419.9,msec,419.9,419.9,msec,Y,CHEST,SUPINE,12-LEAD ECG,,,NORMAL,BASELINE,2,2025-05-07,1,PREDOSE,1
STUDY001,EG,STUDY001-SUBJ0003,9,PR,PR Interval,172.8,msec,172.8,172.8,msec,Y,CHEST,SUPINE,12-LEAD ECG,,,NORMAL,BASELINE,2,2025-05-07,1,PREDOSE,1
STUDY001,EG,STUDY001-SUBJ0003,10,QRS,QRS Duration,93.9,msec,93.9,93.9,msec,Y,CHEST,SUPINE,12-LEAD ECG,,,NORMAL,BASELINE,2,2025-05-07,1,PREDOSE,1
STUDY001,EG,STUDY001-SUBJ0003,11,HR,Heart Rate,73.7,beats/min,73.7,73.7,beats/min,,CHEST,SUPINE,12-LEAD ECG,,,NORMAL,WEEK 4,3,2025-06-03,28,PREDOSE,1
STUDY001,EG,STUDY001-SUBJ0003,12,QT,QT Interval,393.7,msec,393.7,393.7,msec,,CHEST,SUPINE,12-LEAD ECG,,,NORMAL,WEEK 4,3,2025-06-03,28,PREDOSE,1
STUDY001,EG,STUDY001-SUBJ0003,13,QTC,QTc Interval,418.1,msec,418.1,418.1,msec,,CHEST,SUPINE,12-LEAD ECG,,,NORMAL,WEEK 4,3,2025-06-03,28,PREDOSE,1
STUDY001,EG,STUDY001-SUBJ0003,14,PR,PR Interval,176.2,msec,176.2,176.2,msec,,CHEST,SUPINE,12-LEAD ECG,,,NORMAL,WEEK 4,3,2025-06-03,28,PREDOSE,1
STUDY001,EG,STUDY001-SUBJ0003,15,QRS,QRS Duration,91.0,msec,91.0,91.0,msec,,CHEST,SUPINE,12-LEAD ECG,,,NORMAL,WEEK 4,3,2025-06-03,28,PREDOSE,1
STUDY001,EG,STUDY001-SUBJ0003,16,HR,Heart Rate,66.2,beats/min,66.2,66.2,beats/min,,CHEST,SUPINE,12-LEAD ECG,,,NORMAL,WEEK 12,4,2025-07-29,84,PREDOSE,1
STUDY001,EG,STUDY001-SUBJ0003,17,QT,QT Interval,394.3,msec,394.3,394.3,msec,,CHEST,SUPINE,12-LEAD ECG,,,NORMAL,WEEK 12,4,2025-07-29,84,PREDOSE,1
STUDY001,EG,STUDY001-SUBJ0003,18,QTC,QTc Interval,414.6,msec,414.6,414.6,msec,,CHEST,SUPINE,12-LEAD ECG,,,NORMAL,WEEK 12,4,2025-07-29,84,PREDOSE,1
STUDY001,EG,STUDY001-SUBJ0003,19,PR,PR Interval,172.5,msec,172.5,172.5,msec,,CHEST,SUPINE,12-LEAD ECG,,,NORMAL,WEEK 12,4,2025-07-29,84,PREDOSE,1
STUDY001,EG,STUDY001-SUBJ0003,20,QRS,QRS Duration,89.0,msec,89.0,89.0,msec,,CHEST,SUPINE,12-LEAD ECG,,,NORMAL,WEEK 12,4,2025-07-29,84,PREDOSE,1
STUDY001,EG,STUDY001-SUBJ0003,21,HR,Heart Rate,72.0,beats/min,72.0,72.0,beats/min,,CHEST,SUPINE,12-LEAD ECG,,,NORMAL,END OF TREATMENT,5,2025-09-23,140,PREDOSE,1
STUDY001,EG,STUDY001-SUBJ0003,22,QT,QT Interval,386.8,msec,386.8,386.8,msec,,CHEST,SUPINE,12-LEAD ECG,,,NORMAL,END OF TREATMENT,5,2025-09-23,140,PREDOSE,1
STUDY001,EG,STUDY001-SUBJ0003,23,QTC,QTc Interval,415.6,msec,415.6,415.6,msec,,CHEST,SUPINE,12-LEAD ECG,,,NORMAL,END OF TREATMENT,5,2025-09-23,140,PREDOSE,1
STUDY001,EG,STUDY001-SUBJ0003,24,PR,PR Interval,173.2,msec,173.2,173.2,msec,,CHEST,SUPINE,12-LEAD ECG,,,NORMAL,END OF TREATMENT,5,2025-09-23,140,PREDOSE,1
STUDY001,EG,STUDY001-SUBJ0003,25,QRS,QRS Duration,96.1,msec,96.1,96.1,msec,,CHEST,SUPINE,12-LEAD ECG,,,NORMAL,END OF TREATMENT,5,2025-09-23,140,PREDOSE,1
STUDY001,EG,STUDY001-SUBJ0004,1,HR,Heart Rate,80.2,beats/min,80.2,80.2,beats/min,,CHEST,SUPINE,12-LEAD ECG,,,NORMAL,SCREENING,1,2024-12-30,-14,PREDOSE,1
STUDY001,EG,STUDY001-SUBJ0004,2,QT,QT Interval,375.0,msec,375.0,375.0,msec,,CHEST,SUPINE,12-LEAD ECG,,,NORMAL,SCREENING,1,2024-12-30,-14,PREDOSE,1
STUDY001,EG,STUDY001-SUBJ0004,3,QTC,QTc Interval,393.1,msec,393.1,393.1,msec,,CHEST,SUPINE,12-LEAD ECG,,,NORMAL,SCREENING,1,2024-12-30,-14,PREDOSE,1
STUDY001,EG,STUDY001-SUBJ0004,4,PR,PR Interval,159.2,msec,159.2,159.2,msec,,CHEST,SUPINE,12-LEAD ECG,,,NORMAL,SCREENING,1,2024-12-30,-14,PREDOSE,1
STUDY001,EG,STUDY001-SUBJ0004,5,QRS,QRS Duration,89.6,msec,89.6,89.6,msec,,CHEST,SUPINE,12-LEAD ECG,,,NORMAL,SCREENING,1,2024-12-30,-14,PREDOSE,1
STUDY001,EG,STUDY001-SUBJ0004,6,HR,Heart Rate,76.5,beats/min,76.5,76.5,beats/min,Y,CHEST,SUPINE,12-LEAD ECG,,,NORMAL,BASELINE,2,2025-01-13,1,PREDOSE,1
STUDY001,EG,STUDY001-SUBJ0004,7,QT,QT Interval,370.5,msec,370.5,370.5,msec,Y,CHEST,SUPINE,12-LEAD ECG,,NOT DONE,NORMAL,BASELINE,2,2025-01-13,1,PREDOSE,1
STUDY001,EG,STUDY001-SUBJ0004,8,QTC,QTc Interval,387.3,msec,387.3,387.3,msec,Y,CHEST,SUPINE,12-LEAD ECG,,,NORMAL,BASELINE,2,2025-01-13,1,PREDOSE,1
STUDY001,EG,STUDY001-SUBJ0004,9,PR,PR Interval,162.3,msec,162.3,162.3,msec,Y,CHEST,SUPINE,12-LEAD ECG,,,NORMAL,BASELINE,2,2025-01-13,1,PREDOSE,1
STUDY001,EG,STUDY001-SUBJ0004,10,QRS,QRS Duration,87.7,msec,87.7,87.7,msec,Y,CHEST,SUPINE,12-LEAD ECG,,,NORMAL,BASELINE,2,2025-01-13,1,PREDOSE,1
STUDY001,EG,STUDY001-SUBJ0004,11,HR,Heart Rate,78.5,beats/min,78.5,78.5,beats/min,,CHEST,SUPINE,12-LEAD ECG,,,NORMAL,WEEK 4,3,2025-02-09,28,PREDOSE,1
STUDY001,EG,STUDY001-SUBJ0004,12,QT,QT Interval,369.2,msec,369.2,369.2,msec,,CHEST,SUPINE,12-LEAD ECG,TECHNICAL FAILURE,,NORMAL,WEEK 4,3,2025-02-09,28,PREDOSE,1
STUDY001,EG,STUDY001-SUBJ0004,13,QTC,QTc Interval,390.1,msec,390.1,390.1,msec,,CHEST,SUPINE,12-LEAD ECG,,,NORMAL,WEEK 4,3,2025-02-09,28,PREDOSE,1
STUDY001,EG,STUDY001-SUBJ0004,14,PR,PR Interval,162.3,msec,162.3,162.3,msec,,CHEST,SUPINE,12-LEAD ECG,,,NORMAL,WEEK 4,3,2025-02-09,28,PREDOSE,1
STUDY001,EG,STUDY001-SUBJ0004,15,QRS,QRS Duration,88.1,msec,88.1,88.1,msec,,CHEST,SUPINE,12-LEAD ECG,,,NORMAL,WEEK 4,3,2025-02-09,28,PREDOSE,1
STUDY001,EG,STUDY001-SUBJ0004,16,HR,Heart Rate,73.9,beats/min,73.9,73.9,beats/min,,CHEST,SUPINE,12-LEAD ECG,,,NORMAL,WEEK 12,4,2025-04-06,84,PREDOSE,1
STUDY001,EG,STUDY001-SUBJ0004,17,QT,QT Interval,375.7,msec,375.7,375.7,msec,,CHEST,SUPINE,12-LEAD ECG,,,NORMAL,WEEK 12,4,2025-04-06,84,PREDOSE,1
STUDY001,EG,STUDY001-SUBJ0004,18,QTC,QTc Interval,391.9,msec,391.9,391.9,msec,,CHEST,SUPINE,12-LEAD ECG,,,NORMAL,WEEK 12,4,2025-04-06,84,PREDOSE,1
STUDY001,EG,STUDY001-SUBJ0004,19,PR,PR Interval,162.5,msec,162.5,162.5,msec,,CHEST,SUPINE,12-LEAD ECG,,,NORMAL,WEEK 12,4,2025-04-06,84,PREDOSE,1
STUDY001,EG,STUDY001-SUBJ0004,20,QRS,QRS Duration,91.6,msec,91.6,91.6,msec,,CHEST,SUPINE,12-LEAD ECG,,,NORMAL,WEEK 12,4,2025-04-06,84,PREDOSE,1
STUDY001,EG,STUDY001-SUBJ0004,21,HR,Heart Rate,77.6,beats/min,77.6,77.6,beats/min,,CHEST,SUPINE,12-LEAD ECG,,,NORMAL,END OF TREATMENT,5,2025-06-01,140,PREDOSE,1
STUDY001,EG,STUDY001-SUBJ0004,22,QT,QT Interval,366.4,msec,366.4,366.4,msec,,CHEST,SUPINE,12-LEAD ECG,,,NORMAL,END OF TREATMENT,5,2025-06-01,140,PREDOSE,1
STUDY001,EG,STUDY001-SUBJ0004,23,QTC,QTc Interval,388.2,msec,388.2,388.2,msec,,CHEST,SUPINE,12-LEAD ECG,,,NORMAL,END OF TREATMENT,5,2025-06-01,140,PREDOSE,1
STUDY001,EG,STUDY001-SUBJ0004,24,PR,PR Interval,155.2,msec,155.2,155.2,msec,,CHEST,SUPINE,12-LEAD ECG,,,NORMAL,END OF TREATMENT,5,2025-06-01,140,PREDOSE,1
STUDY001,EG,STUDY001-SUBJ0004,25,QRS,QRS Duration,93.1,msec,93.1,93.1,msec,,CHEST,SUPINE,12-LEAD ECG,TECHNICAL FAILURE,,NORMAL,END OF TREATMENT,5,2025-06-01,140,PREDOSE,1
STUDY001,EG,STUDY001-SUBJ0005,1,HR,Heart Rate,57.4,beats/min,57.4,57.4,beats/min,,CHEST,SUPINE,12-LEAD ECG,,,LOW,SCREENING,1,2025-10-21,-14,PREDOSE,1
STUDY001,EG,STUDY001-SUBJ0005,2,QT,QT Interval,392.4,msec,392.4,392.4,msec,,CHEST,SUPINE,12-LEAD ECG,,,NORMAL,SCREENING,1,2025-10-21,-14,PREDOSE,1
STUDY001,EG,STUDY001-SUBJ0005,3,QTC,QTc Interval,391.1,msec,391.1,391.1,msec,,CHEST,SUPINE,12-LEAD ECG,,,NORMAL,SCREENING,1,2025-10-21,-14,PREDOSE,1
STUDY001,EG,STUDY001-SUBJ0005,4,PR,PR Interval,153.5,msec,153.5,153.5,msec,,CHEST,SUPINE,12-LEAD ECG,,,NORMAL,SCREENING,1,2025-10-21,-14,PREDOSE,1
STUDY001,EG,STUDY001-SUBJ0005,5,QRS,QRS Duration,94.4,msec,94.4,94.4,msec,,CHEST,SUPINE,12-LEAD ECG,,,NORMAL,SCREENING,1,2025-10-21,-14,PREDOSE,1
STUDY001,EG,STUDY001-SUBJ0005,6,HR,Heart Rate,62.3,beats/min,62.3,62.3,beats/min,Y,CHEST,SUPINE,12-LEAD ECG,,,NORMAL,BASELINE,2,2025-11-04,1,PREDOSE,1
STUDY001,EG,STUDY001-SUBJ0005,7,QT,QT Interval,400.5,msec,400.5,400.5,msec,Y,CHEST,SUPINE,12-LEAD ECG,,,NORMAL,BASELINE,2,2025-11-04,1,PREDOSE,1
STUDY001,EG,STUDY001-SUBJ0005,8,QTC,QTc Interval,390.4,msec,390.4,390.4,msec,Y,CHEST,SUPINE,12-LEAD ECG,,,NORMAL,BASELINE,2,2025-11-04,1,PREDOSE,1
STUDY001,EG,STUDY001-SUBJ0005,9,PR,PR Interval,151.8,msec,151.8,151.8,msec,Y,CHEST,SUPINE,12-LEAD ECG,,,NORMAL,BASELINE,2,2025-11-04,1,PREDOSE,1
STUDY001,EG,STUDY001-SUBJ0005,10,QRS,QRS Duration,99.5,msec,99.5,99.5,msec,Y,CHEST,SUPINE,12-LEAD ECG,,,NORMAL,BASELINE,2,2025-11-04,1,PREDOSE,1
STUDY001,EG,STUDY001-SUBJ0005,11,HR,Heart Rate,59.4,beats/min,59.4,59.4,beats/min,,CHEST,SUPINE,12-LEAD ECG,,,LOW,WEEK 4,3,2025-12-01,28,PREDOSE,1
STUDY001,EG,STUDY001-SUBJ0005,12,QT,QT Interval,396.9,msec,396.9,396.9,msec,,CHEST,SUPINE,12-LEAD ECG,,,NORMAL,WEEK 4,3,2025-12-01,28,PREDOSE,1
STUDY001,EG,STUDY001-SUBJ0005,13,QTC,QTc Interval,393.4,msec,393.4,393.4,msec,,CHEST,SUPINE,12-LEAD ECG,,,NORMAL,WEEK 4,3,2025-12-01,28,PREDOSE,1
STUDY001,EG,STUDY001-SUBJ0005,14,PR,PR Interval,154.0,msec,154.0,154.0,msec,,CHEST,SUPINE,12-LEAD ECG,,,NORMAL,WEEK 4,3,2025-12-01,28,PREDOSE,1
STUDY001,EG,STUDY001-SUBJ0005,15,QRS,QRS Duration,98.6,msec,98.6,98.6,msec,,CHEST,SUPINE,12-LEAD ECG,,,NORMAL,WEEK 4,3,2025-12-01,28,PREDOSE,1
STUDY001,EG,STUDY001-SUBJ0006,1,HR,Heart Rate,73.1,beats/min,73.1,73.1,beats/min,,CHEST,SUPINE,12-LEAD ECG,,,NORMAL,SCREENING,1,2025-05-05,-14,PREDOSE,1
STUDY001,EG,STUDY001-SUBJ0006,2,QT,QT Interval,408.7,msec,408.7,408.7,msec,,CHEST,SUPINE,12-LEAD ECG,,,NORMAL,SCREENING,1,2025-05-05,-14,PREDOSE,1
STUDY001,EG,STUDY001-SUBJ0006,3,QTC,QTc Interval,423.0,msec,423.0,423.0,msec,,CHEST,SUPINE,12-LEAD ECG,,,NORMAL,SCREENING,1,2025-05-05,-14,PREDOSE,1
STUDY001,EG,STUDY001-SUBJ0006,4,PR,PR Interval,155.8,msec,155.8,155.8,msec,,CHEST,SUPINE,12-LEAD ECG,,,NORMAL,SCREENING,1,2025-05-05,-14,PREDOSE,1
STUDY001,EG,STUDY001-SUBJ0006,5,QRS,QRS Duration,99.3,msec,99.3,99.3,msec,,CHEST,SUPINE,12-LEAD ECG,,NOT DONE,NORMAL,SCREENING,1,2025-05-05,-14,PREDOSE,1
STUDY001,EG,STUDY001-SUBJ0006,6,HR,Heart Rate,80.1,beats/min,80.1,80.1,beats/min,Y,CHEST,SUPINE,12-LEAD ECG,TECHNICAL FAILURE,,NORMAL,BASELINE,2,2025-05-19,1,PREDOSE,1
STUDY001,EG,STUDY001-SUBJ0006,7,QT,QT Interval,406.0,msec,406.0,406.0,msec,Y,CHEST,SUPINE,12-LEAD ECG,,,NORMAL,BASELINE,2,2025-05-19,1,PREDOSE,1
STUDY001,EG,STUDY001-SUBJ0006,8,QTC,QTc Interval,419.1,msec,419.1,419.1,msec,Y,CHEST,SUPINE,12-LEAD ECG,,,NORMAL,BASELINE,2,2025-05-19,1,PREDOSE,1
STUDY001,EG,STUDY001-SUBJ0006,9,PR,PR Interval,156.1,msec,156.1,156.1,msec,Y,CHEST,SUPINE,12-LEAD ECG,,,NORMAL,BASELINE,2,2025-05-19,1,PREDOSE,1
STUDY001,EG,STUDY001-SUBJ0006,10,QRS,QRS Duration,103.7,msec,103.7,103.7,msec,Y,CHEST,SUPINE,12-LEAD ECG,,NOT DONE,NORMAL,BASELINE,2,2025-05-19,1,PREDOSE,1
STUDY001,EG,STUDY001-SUBJ0006,11,HR,Heart Rate,74.1,beats/min,74.1,74.1,beats/min,,CHEST,SUPINE,12-LEAD ECG,,,NORMAL,WEEK 4,3,2025-06-15,28,PREDOSE,1
STUDY001,EG,STUDY001-SUBJ0006,12,QT,QT Interval,406.0,msec,406.0,406.0,msec,,CHEST,SUPINE,12-LEAD ECG,,,NORMAL,WEEK 4,3,2025-06-15,28,PREDOSE,1
STUDY001,EG,STUDY001-SUBJ0006,13,QTC,QTc Interval,423.6,msec,423.6,423.6,msec,,CHEST,SUPINE,12-LEAD ECG,,,NORMAL,WEEK 4,3,2025-06-15,28,PREDOSE,1
STUDY001,EG,STUDY001-SUBJ0006,14,PR,PR Interval,156.0,msec,156.0,156.0,msec,,CHEST,SUPINE,12-LEAD ECG,,,NORMAL,WEEK 4,3,2025-06-15,28,PREDOSE,1
STUDY001,EG,STUDY001-SUBJ0006,15,QRS,QRS Duration,97.4,msec,97.4,97.4,msec,,CHEST,SUPINE,12-LEAD ECG,,,NORMAL,WEEK 4,3,2025-06-15,28,PREDOSE,1
STUDY001,EG,STUDY001-SUBJ0006,16,HR,Heart Rate,78.2,beats/min,78.2,78.2,beats/min,,CHEST,SUPINE,12-LEAD ECG,,,NORMAL,WEEK 12,4,2025-08-10,84,PREDOSE,1
STUDY001,EG,STUDY001-SUBJ0006,17,QT,QT Interval,410.6,msec,410.6,410.6,msec,,CHEST,SUPINE,12-LEAD ECG,,,NORMAL,WEEK 12,4,2025-08-10,84,PREDOSE,1
STUDY001,EG,STUDY001-SUBJ0006,18,QTC,QTc Interval,426.5,msec,426.5,426.5,msec,,CHEST,SUPINE,12-LEAD ECG,,,NORMAL,WEEK 12,4,2025-08-10,84,PREDOSE,1
STUDY001,EG,STUDY001-SUBJ0006,19,PR,PR Interval,153.3,msec,153.3,153.3,msec,,CHEST,SUPINE,12-LEAD ECG,,,NORMAL,WEEK 12,4,2025-08-10,84,PREDOSE,1
STUDY001,EG,STUDY001-SUBJ0006,20,QRS,QRS Duration,100.0,msec,100.0,100.0,msec,,CHEST,SUPINE,12-LEAD ECG,,,NORMAL,WEEK 12,4,2025-08-10,84,PREDOSE,1
STUDY001,EG,STUDY001-SUBJ0006,21,HR,Heart Rate,75.3,beats/min,75.3,75.3,beats/min,,CHEST,SUPINE,12-LEAD ECG,,,NORMAL,END OF TREATMENT,5,2025-10-05,140,PREDOSE,1
STUDY001,EG,STUDY001-SUBJ0006,22,QT,QT Interval,411.3,msec,411.3,411.3,msec,,CHEST,SUPINE,12-LEAD ECG,,,NORMAL,END OF TREATMENT,5,2025-10-05,140,PREDOSE,1
STUDY001,EG,STUDY001-SUBJ0006,23,QTC,QTc Interval,419.2,msec,419.2,419.2,msec,,CHEST,SUPINE,12-LEAD ECG,,,NORMAL,END OF TREATMENT,5,2025-10-05,140,PREDOSE,1
STUDY001,EG,STUDY001-SUBJ0006,24,PR,PR Interval,156.4,msec,156.4,156.4,msec,,CHEST,SUPINE,12-LEAD ECG,,,NORMAL,END OF TREATMENT,5,2025-10-05,140,PREDOSE,1
STUDY001,EG,STUDY001-SUBJ0006,25,QRS,QRS Duration,97.3,msec,97.3,97.3,msec,,CHEST,SUPINE,12-LEAD ECG,,,NORMAL,END OF TREATMENT,5,2025-10-05,140,PREDOSE,1
STUDY001,EG,STUDY001-SUBJ0007,1,HR,Heart Rate,78.3,beats/min,78.3,78.3,beats/min,,CHEST,SUPINE,12-LEAD ECG,,,NORMAL,SCREENING,1,2025-02-07,-14,PREDOSE,1
STUDY001,EG,STUDY001-SUBJ0007,2,QT,QT Interval,414.7,msec,414.7,414.7,msec,,CHEST,SUPINE,12-LEAD ECG,,,NORMAL,SCREENING,1,2025-02-07,-14,PREDOSE,1
STUDY001,EG,STUDY001-SUBJ0007,3,QTC,QTc Interval,377.6,msec,377.6,377.6,msec,,CHEST,SUPINE,12-LEAD ECG,,,NORMAL,SCREENING,1,2025-02-07,-14,PREDOSE,1
STUDY001,EG,STUDY001-SUBJ0007,4,PR,PR Interval,158.8,msec,158.8,158.8,msec,,CHEST,SUPINE,12-LEAD ECG,,,NORMAL,SCREENING,1,2025-02-07,-14,PREDOSE,1
STUDY001,EG,STUDY001-SUBJ0007,5,QRS,QRS Duration,84.4,msec,84.4,84.4,msec,,CHEST,SUPINE,12-LEAD ECG,,,NORMAL,SCREENING,1,2025-02-07,-14,PREDOSE,1
STUDY001,EG,STUDY001-SUBJ0007,6,HR,Heart Rate,69.6,beats/min,69.6,69.6,beats/min,Y,CHEST,SUPINE,12-LEAD ECG,,,NORMAL,BASELINE,2,2025-02-21,1,PREDOSE,1
STUDY001,EG,STUDY001-SUBJ0007,7,QT,QT Interval,410.5,msec,410.5,410.5,msec,Y,CHEST,SUPINE,12-LEAD ECG,,,NORMAL,BASELINE,2,2025-02-21,1,PREDOSE,1
STUDY001,EG,STUDY001-SUBJ0007,8,QTC,QTc Interval,379.2,msec,379.2,379.2,msec,Y,CHEST,SUPINE,12-LEAD ECG,,,NORMAL,BASELINE,2,2025-02-21,1,PREDOSE,1
STUDY001,EG,STUDY001-SUBJ0007,9,PR,PR Interval,157.8,msec,157.8,157.8,msec,Y,CHEST,SUPINE,12-LEAD ECG,,,NORMAL,BASELINE,2,2025-02-21,1,PREDOSE,1
STUDY001,EG,STUDY001-SUBJ0007,10,QRS,QRS Duration,86.9,msec,86.9,86.9,msec,Y,CHEST,SUPINE,12-LEAD ECG,,,NORMAL,BASELINE,2,2025-02-21,1,PREDOSE,1
STUDY001,EG,STUDY001-SUBJ0007,11,HR,Heart Rate,74.9,beats/min,74.9,74.9,beats/min,,CHEST,SUPINE,12-LEAD ECG,,,NORMAL,WEEK 4,3,2025-03-20,28,PREDOSE,1
STUDY001,EG,STUDY001-SUBJ0007,12,QT,QT Interval,410.2,msec,410.2,410.2,msec,,CHEST,SUPINE,12-LEAD ECG,,,NORMAL,WEEK 4,3,2025-03-20,28,PREDOSE,1
STUDY001,EG,STUDY001-SUBJ0007,13,QTC,QTc Interval,384.1,msec,384.1,384.1,msec,,CHEST,SUPINE,12-LEAD ECG,,,NORMAL,WEEK 4,3,2025-03-20,28,PREDOSE,1
STUDY001,EG,STUDY001-SUBJ0007,14,PR,PR Interval,159.2,msec,159.2,159.2,msec,,CHEST,SUPINE,12-LEAD ECG,,,NORMAL,WEEK 4,3,2025-03-20,28,PREDOSE,1
STUDY001,EG,STUDY001-SUBJ0007,15,QRS,QRS Duration,84.3,msec,84.3,84.3,msec,,CHEST,SUPINE,12-LEAD ECG,,,NORMAL,WEEK 4,3,2025-03-20,28,PREDOSE,1
STUDY001,EG,STUDY001-SUBJ0007,16,HR,Heart Rate,70.5,beats/min,70.5,70.5,beats/min,,CHEST,SUPINE,12-LEAD ECG,,,NORMAL,WEEK 12,4,2025-05-15,84,PREDOSE,1
STUDY001,EG,STUDY001-SUBJ0007,17,QT,QT Interval,407.9,msec,407.9,407.9,msec,,CHEST,SUPINE,12-LEAD ECG,,,NORMAL,WEEK 12,4,2025-05-15,84,PREDOSE,1
STUDY001,EG,STUDY001-SUBJ0007,18,QTC,QTc Interval,377.1,msec,377.1,377.1,msec,,CHEST,SUPINE,12-LEAD ECG,,,NORMAL,WEEK 12,4,2025-05-15,84,PREDOSE,1
STUDY001,EG,STUDY001-SUBJ0007,19,PR,PR Interval,154.0,msec,154.0,154.0,msec,,CHEST,SUPINE,12-LEAD ECG,,NOT DONE,NORMAL,WEEK 12,4,2025-05-15,84,PREDOSE,1
STUDY001,EG,STUDY001-SUBJ0007,20,QRS,QRS Duration,83.5,msec,83.5,83.5,msec,,CHEST,SUPINE,12-LEAD ECG,,,NORMAL,WEEK 12,4,2025-05-15,84,PREDOSE,1
STUDY001,EG,STUDY001-SUBJ0007,21,HR,Heart Rate,70.9,beats/min,70.9,70.9,beats/min,,CHEST,SUPINE,12-LEAD ECG,,,NORMAL,END OF TREATMENT,5,2025-07-10,140,PREDOSE,1
STUDY001,EG,STUDY001-SUBJ0007,22,QT,QT Interval,412.1,msec,412.1,412.1,msec,,CHEST,SUPINE,12-LEAD ECG,,,NORMAL,END OF TREATMENT,5,2025-07-10,140,PREDOSE,1
STUDY001,EG,STUDY001-SUBJ0007,23,QTC,QTc Interval,384.1,msec,384.1,384.1,msec,,CHEST,SUPINE,12-LEAD ECG,,,NORMAL,END OF TREATMENT,5,2025-07-10,140,PREDOSE,1
STUDY001,EG,STUDY001-SUBJ0007,24,PR,PR Interval,155.9,msec,155.9,155.9,msec,,CHEST,SUPINE,12-LEAD ECG,,,NORMAL,END OF TREATMENT,5,2025-07-10,140,PREDOSE,1
STUDY001,EG,STUDY001-SUBJ0007,25,QRS,QRS Duration,87.6,msec,87.6,87.6,msec,,CHEST,SUPINE,12-LEAD ECG,,,NORMAL,END OF TREATMENT,5,2025-07-10,140,PREDOSE,1
STUDY001,EG,STUDY001-SUBJ0008,1,HR,Heart Rate,80.8,beats/min,80.8,80.8,beats/min,,CHEST,SUPINE,12-LEAD ECG,,,NORMAL,SCREENING,1,2025-07-15,-14,PREDOSE,1
STUDY001,EG,STUDY001-SUBJ0008,2,QT,QT Interval,390.3,msec,390.3,390.3,msec,,CHEST,SUPINE,12-LEAD ECG,,,NORMAL,SCREENING,1,2025-07-15,-14,PREDOSE,1
STUDY001,EG,STUDY001-SUBJ0008,3,QTC,QTc Interval,378.7,msec,378.7,378.7,msec,,CHEST,SUPINE,12-LEAD ECG,,,NORMAL,SCREENING,1,2025-07-15,-14,PREDOSE,1
STUDY001,EG,STUDY001-SUBJ0008,4,PR,PR Interval,166.6,msec,166.6,166.6,msec,,CHEST,SUPINE,12-LEAD ECG,,,NORMAL,SCREENING,1,2025-07-15,-14,PREDOSE,1
STUDY001,EG,STUDY001-SUBJ0008,5,QRS,QRS Duration,90.1,msec,90.1,90.1,msec,,CHEST,SUPINE,12-LEAD ECG,,,NORMAL,SCREENING,1,2025-07-15,-14,PREDOSE,1
STUDY001,EG,STUDY001-SUBJ0008,6,HR,Heart Rate,80.7,beats/min,80.7,80.7,beats/min,Y,CHEST,SUPINE,12-LEAD ECG,,,NORMAL,BASELINE,2,2025-07-29,1,PREDOSE,1
STUDY001,EG,STUDY001-SUBJ0008,7,QT,QT Interval,391.1,msec,391.1,391.1,msec,Y,CHEST,SUPINE,12-LEAD ECG,,,NORMAL,BASELINE,2,2025-07-29,1,PREDOSE,1
STUDY001,EG,STUDY001-SUBJ0008,8,QTC,QTc Interval,386.1,msec,386.1,386.1,msec,Y,CHEST,SUPINE,12-LEAD ECG,,,NORMAL,BASELINE,2,2025-07-29,1,PREDOSE,1
STUDY001,EG,STUDY001-SUBJ0008,9,PR,PR Interval,168.1,msec,168.1,168.1,msec,Y,CHEST,SUPINE,12-LEAD ECG,,,NORMAL,BASELINE,2,2025-07-29,1,PREDOSE,1
STUDY001,EG,STUDY001-SUBJ0008,10,QRS,QRS Duration,86.4,msec,86.4,86.4,msec,Y,CHEST,SUPINE,12-LEAD ECG,,,NORMAL,BASELINE,2,2025-07-29,1,PREDOSE,1
STUDY001,EG,STUDY001-SUBJ0008,11,HR,Heart Rate,77.6,beats/min,77.6,77.6,beats/min,,CHEST,SUPINE,12-LEAD ECG,,,NORMAL,WEEK 4,3,2025-08-25,28,PREDOSE,1
STUDY001,EG,STUDY001-SUBJ0008,12,QT,QT Interval,388.9,msec,388.9,388.9,msec,,CHEST,SUPINE,12-LEAD ECG,,,NORMAL,WEEK 4,3,2025-08-25,28,PREDOSE,1
STUDY001,EG,STUDY001-SUBJ0008,13,QTC,QTc Interval,381.0,msec,381.0,381.0,msec,,CHEST,SUPINE,12-LEAD ECG,,,NORMAL,WEEK 4,3,2025-08-25,28,PREDOSE,1
STUDY001,EG,STUDY001-SUBJ0008,14,PR,PR Interval,161.1,msec,161.1,161.1,msec,,CHEST,SUPINE,12-LEAD ECG,,,NORMAL,WEEK 4,3,2025-08-25,28,PREDOSE,1
STUDY001,EG,STUDY001-SUBJ0008,15,QRS,QRS Duration,87.3,msec,87.3,87.3,msec,,CHEST,SUPINE,12-LEAD ECG,,,NORMAL,WEEK 4,3,2025-08-25,28,PREDOSE,1
STUDY001,EG,STUDY001-SUBJ0008,16,HR,Heart Rate,76.9,beats/min,76.9,76.9,beats/min,,CHEST,SUPINE,12-LEAD ECG,,,NORMAL,WEEK 12,4,2025-10-20,84,PREDOSE,1
STUDY001,EG,STUDY001-SUBJ0008,17,QT,QT Interval,387.7,msec,387.7,387.7,msec,,CHEST,SUPINE,12-LEAD ECG,,,NORMAL,WEEK 12,4,2025-10-20,84,PREDOSE,1
STUDY001,EG,STUDY001-SUBJ0008,18,QTC,QTc Interval,379.8,msec,379.8,379.8,msec,,CHEST,SUPINE,12-LEAD ECG,,,NORMAL,WEEK 12,4,2025-10-20,84,PREDOSE,1
STUDY001,EG,STUDY001-SUBJ0008,19,PR,PR Interval,160.4,msec,160.4,160.4,msec,,CHEST,SUPINE,12-LEAD ECG,,,NORMAL,WEEK 12,4,2025-10-20,84,PREDOSE,1
STUDY001,EG,STUDY001-SUBJ0008,20,QRS,QRS Duration,89.7,msec,89.7,89.7,msec,,CHEST,SUPINE,12-LEAD ECG,,,NORMAL,WEEK 12,4,2025-10-20,84,PREDOSE,1
STUDY001,EG,STUDY001-SUBJ0008,21,HR,Heart Rate,82.7,beats/min,82.7,82.7,beats/min,,CHEST,SUPINE,12-LEAD ECG,TECHNICAL FAILURE,NOT DONE,NORMAL,END OF TREATMENT,5,2025-12-15,140,PREDOSE,1
STUDY001,EG,STUDY001-SUBJ0008,22,QT,QT Interval,386.0,msec,386.0,386.0,msec,,CHEST,SUPINE,12-LEAD ECG,,,NORMAL,END OF TREATMENT,5,2025-12-15,140,PREDOSE,1
STUDY001,EG,STUDY001-SUBJ0008,23,QTC,QTc Interval,385.0,msec,385.0,385.0,msec,,CHEST,SUPINE,12-LEAD ECG,,,NORMAL,END OF TREATMENT,5,2025-12-15,140,PREDOSE,1
STUDY001,EG,STUDY001-SUBJ0008,24,PR,PR Interval,163.7,msec,163.7,163.7,msec,,CHEST,SUPINE,12-LEAD ECG,,,NORMAL,END OF TREATMENT,5,2025-12-15,140,PREDOSE,1
STUDY001,EG,STUDY001-SUBJ0008,25,QRS,QRS Duration,90.8,msec,90.8,90.8,msec,,CHEST,SUPINE,12-LEAD ECG,,,NORMAL,END OF TREATMENT,5,2025-12-15,140,PREDOSE,1
STUDY001,EG,STUDY001-SUBJ0009,1,HR,Heart Rate,59.9,beats/min,59.9,59.9,beats/min,,CHEST,SUPINE,12-LEAD ECG,,,LOW,SCREENING,1,2025-05-14,-14,PREDOSE,1
STUDY001,EG,STUDY001-SUBJ0009,2,QT,QT Interval,421.4,msec,421.4,421.4,msec,,CHEST,SUPINE,12-LEAD ECG,,,NORMAL,SCREENING,1,2025-05-14,-14,PREDOSE,1
STUDY001,EG,STUDY001-SUBJ0009,3,QTC,QTc Interval,377.4,msec,377.4,377.4,msec,,CHEST,SUPINE,12-LEAD ECG,,,NORMAL,SCREENING,1,2025-05-14,-14,PREDOSE,1
STUDY001,EG,STUDY001-SUBJ0009,4,PR,PR Interval,153.5,msec,153.5,153.5,msec,,CHEST,SUPINE,12-LEAD ECG,,,NORMAL,SCREENING,1,2025-05-14,-14,PREDOSE,1
STUDY001,EG,STUDY001-SUBJ0009,5,QRS,QRS Duration,93.3,msec,93.3,93.3,msec,,CHEST,SUPINE,12-LEAD ECG,,,NORMAL,SCREENING,1,2025-05-14,-14,PREDOSE,1
STUDY001,EG,STUDY001-SUBJ0009,6,HR,Heart Rate,60.7,beats/min,60.7,60.7,beats/min,Y,CHEST,SUPINE,12-LEAD ECG,,,NORMAL,BASELINE,2,2025-05-28,1,PREDOSE,1
STUDY001,EG,STUDY001-SUBJ0009,7,QT,QT Interval,417.5,msec,417.5,417.5,msec,Y,CHEST,SUPINE,12-LEAD ECG,,NOT DONE,NORMAL,BASELINE,2,2025-05-28,1,PREDOSE,1
STUDY001,EG,STUDY001-SUBJ0009,8,QTC,QTc Interval,383.4,msec,383.4,383.4,msec,Y,CHEST,SUPINE,12-LEAD ECG,,,NORMAL,BASELINE,2,2025-05-28,1,PREDOSE,1
STUDY001,EG,STUDY001-SUBJ0009,9,PR,PR Interval,152.5,msec,152.5,152.5,msec,Y,CHEST,SUPINE,12-LEAD ECG,,,NORMAL,BASELINE,2,2025-05-28,1,PREDOSE,1
STUDY001,EG,STUDY001-SUBJ0009,10,QRS,QRS Duration,91.9,msec,91.9,91.9,msec,Y,CHEST,SUPINE,12-LEAD ECG,,,NORMAL,BASELINE,2,2025-05-28,1,PREDOSE,1
STUDY001,EG,STUDY001-SUBJ0009,11,HR,Heart Rate,65.2,beats/min,65.2,65.2,beats/min,,CHEST,SUPINE,12-LEAD ECG,,,NORMAL,WEEK 4,3,2025-06-24,28,PREDOSE,1
STUDY001,EG,STUDY001-SUBJ0009,12,QT,QT Interval,421.6,msec,421.6,421.6,msec,,CHEST,SUPINE,12-LEAD ECG,,,NORMAL,WEEK 4,3,2025-06-24,28,PREDOSE,1
STUDY001,EG,STUDY001-SUBJ0009,13,QTC,QTc Interval,382.6,msec,382.6,382.6,msec,,CHEST,SUPINE,12-LEAD ECG,TECHNICAL FAILURE,,NORMAL,WEEK 4,3,2025-06-24,28,PREDOSE,1
STUDY001,EG,STUDY001-SUBJ0009,14,PR,PR Interval,153.2,msec,153.2,153.2,msec,,CHEST,SUPINE,12-LEAD ECG,,,NORMAL,WEEK 4,3,2025-06-24,28,PREDOSE,1
STUDY001,EG,STUDY001-SUBJ0009,15,QRS,QRS Duration,92.9,msec,92.9,92.9,msec,,CHEST,SUPINE,12-LEAD ECG,,,NORMAL,WEEK 4,3,2025-06-24,28,PREDOSE,1
STUDY001,EG,STUDY001-SUBJ0009,16,HR,Heart Rate,59.4,beats/min,59.4,59.4,beats/min,,CHEST,SUPINE,12-LEAD ECG,,,LOW,WEEK 12,4,2025-08-19,84,PREDOSE,1
STUDY001,EG,STUDY001-SUBJ0009,17,QT,QT Interval,415.2,msec,415.2,415.2,msec,,CHEST,SUPINE,12-LEAD ECG,,,NORMAL,WEEK 12,4,2025-08-19,84,PREDOSE,1
STUDY001,EG,STUDY001-SUBJ0009,18,QTC,QTc Interval,380.2,msec,380.2,380.2,msec,,CHEST,SUPINE,12-LEAD ECG,,,NORMAL,WEEK 12,4,2025-08-19,84,PREDOSE,1
STUDY001,EG,STUDY001-SUBJ0009,19,PR,PR Interval,150.2,msec,150.2,150.2,msec,,CHEST,SUPINE,12-LEAD ECG,,,NORMAL,WEEK 12,4,2025-08-19,84,PREDOSE,1
STUDY001,EG,STUDY001-SUBJ0009,20,QRS,QRS Duration,99.6,msec,99.6,99.6,msec,,CHEST,SUPINE,12-LEAD ECG,,NOT DONE,NORMAL,WEEK 12,4,2025-08-19,84,PREDOSE,1
STUDY001,EG,STUDY001-SUBJ0009,21,HR,Heart Rate,61.2,beats/min,61.2,61.2,beats/min,,CHEST,SUPINE,12-LEAD ECG,,,NORMAL,END OF TREATMENT,5,2025-10-14,140,PREDOSE,1
STUDY001,EG,STUDY001-SUBJ0009,22,QT,QT Interval,420.2,msec,420.2,420.2,msec,,CHEST,SUPINE,12-LEAD ECG,,,NORMAL,END OF TREATMENT,5,2025-10-14,140,PREDOSE,1
STUDY001,EG,STUDY001-SUBJ0009,23,QTC,QTc Interval,386.3,msec,386.3,386.3,msec,,CHEST,SUPINE,12-LEAD ECG,,,NORMAL,END OF TREATMENT,5,2025-10-14,140,PREDOSE,1
STUDY001,EG,STUDY001-SUBJ0009,24,PR,PR Interval,154.9,msec,154.9,154.9,msec,,CHEST,SUPINE,12-LEAD ECG,,,NORMAL,END OF TREATMENT,5,2025-10-14,140,PREDOSE,1
STUDY001,EG,STUDY001-SUBJ0009,25,QRS,QRS Duration,96.7,msec,96.7,96.7,msec,,CHEST,SUPINE,12-LEAD ECG,,,NORMAL,END OF TREATMENT,5,2025-10-14,140,PREDOSE,1
STUDY001,EG,STUDY001-SUBJ0010,1,HR,Heart Rate,75.1,beats/min,75.1,75.1,beats/min,,CHEST,SUPINE,12-LEAD ECG,,,NORMAL,SCREENING,1,2025-10-06,-14,PREDOSE,1
STUDY001,EG,STUDY001-SUBJ0010,2,QT,QT Interval,372.9,msec,372.9,372.9,msec,,CHEST,SUPINE,12-LEAD ECG,,,NORMAL,SCREENING,1,2025-10-06,-14,PREDOSE,1
STUDY001,EG,STUDY001-SUBJ0010,3,QTC,QTc Interval,397.8,msec,397.8,397.8,msec,,CHEST,SUPINE,12-LEAD ECG,,,NORMAL,SCREENING,1,2025-10-06,-14,PREDOSE,1
STUDY001,EG,STUDY001-SUBJ0010,4,PR,PR Interval,151.6,msec,151.6,151.6,msec,,CHEST,SUPINE,12-LEAD ECG,,,NORMAL,SCREENING,1,2025-10-06,-14,PREDOSE,1
STUDY001,EG,STUDY001-SUBJ0010,5,QRS,QRS Duration,95.4,msec,95.4,95.4,msec,,CHEST,SUPINE,12-LEAD ECG,,,NORMAL,SCREENING,1,2025-10-06,-14,PREDOSE,1
STUDY001,EG,STUDY001-SUBJ0010,6,HR,Heart Rate,69.2,beats/min,69.2,69.2,beats/min,Y,CHEST,SUPINE,12-LEAD ECG,,,NORMAL,BASELINE,2,2025-10-20,1,PREDOSE,1
STUDY001,EG,STUDY001-SUBJ0010,7,QT,QT Interval,367.3,msec,367.3,367.3,msec,Y,CHEST,SUPINE,12-LEAD ECG,,,NORMAL,BASELINE,2,2025-10-20,1,PREDOSE,1
STUDY001,EG,STUDY001-SUBJ0010,8,QTC,QTc Interval,397.5,msec,397.5,397.5,msec,Y,CHEST,SUPINE,12-LEAD ECG,,,NORMAL,BASELINE,2,2025-10-20,1,PREDOSE,1
STUDY001,EG,STUDY001-SUBJ0010,9,PR,PR Interval,154.6,msec,154.6,154.6,msec,Y,CHEST,SUPINE,12-LEAD ECG,,,NORMAL,BASELINE,2,2025-10-20,1,PREDOSE,1
STUDY001,EG,STUDY001-SUBJ0010,10,QRS,QRS Duration,95.5,msec,95.5,95.5,msec,Y,CHEST,SUPINE,12-LEAD ECG,,,NORMAL,BASELINE,2,2025-10-20,1,PREDOSE,1
STUDY001,EG,STUDY001-SUBJ0010,11,HR,Heart Rate,75.7,beats/min,75.7,75.7,beats/min,,CHEST,SUPINE,12-LEAD ECG,,,NORMAL,WEEK 4,3,2025-11-16,28,PREDOSE,1
STUDY001,EG,STUDY001-SUBJ0010,12,QT,QT Interval,373.2,msec,373.2,373.2,msec,,CHEST,SUPINE,12-LEAD ECG,,,NORMAL,WEEK 4,3,2025-11-16,28,PREDOSE,1
STUDY001,EG,STUDY001-SUBJ0010,13,QTC,QTc Interval,398.2,msec,398.2,398.2,msec,,CHEST,SUPINE,12-LEAD ECG,,,NORMAL,WEEK 4,3,2025-11-16,28,PREDOSE,1
STUDY001,EG,STUDY001-SUBJ0010,14,PR,PR Interval,151.4,msec,151.4,151.4,msec,,CHEST,SUPINE,12-LEAD ECG,TECHNICAL FAILURE,,NORMAL,WEEK 4,3,2025-11-16,28,PREDOSE,1
STUDY001,EG,STUDY001-SUBJ0010,15,QRS,QRS Duration,93.6,msec,93.6,93.6,msec,,CHEST,SUPINE,12-LEAD ECG,,,NORMAL,WEEK 4,3,2025-11-16,28,PREDOSE,1
STUDY001,EG,STUDY001-SUBJ0011,1,HR,Heart Rate,67.0,beats/min,67.0,67.0,beats/min,,CHEST,SUPINE,12-LEAD ECG,,,NORMAL,SCREENING,1,2025-03-15,-14,PREDOSE,1
STUDY001,EG,STUDY001-SUBJ0011,2,QT,QT Interval,417.4,msec,417.4,417.4,msec,,CHEST,SUPINE,12-LEAD ECG,TECHNICAL FAILURE,,NORMAL,SCREENING,1,2025-03-15,-14,PREDOSE,1
STUDY001,EG,STUDY001-SUBJ0011,3,QTC,QTc Interval,411.6,msec,411.6,411.6,msec,,CHEST,SUPINE,12-LEAD ECG,,,NORMAL,SCREENING,1,2025-03-15,-14,PREDOSE,1
STUDY001,EG,STUDY001-SUBJ0011,4,PR,PR Interval,154.6,msec,154.6,154.6,msec,,CHEST,SUPINE,12-LEAD ECG,,,NORMAL,SCREENING,1,2025-03-15,-14,PREDOSE,1
STUDY001,EG,STUDY001-SUBJ0011,5,QRS,QRS Duration,77.3,msec,77.3,77.3,msec,,CHEST,SUPINE,12-LEAD ECG,,,NORMAL,SCREENING,1,2025-03-15,-14,PREDOSE,1
STUDY001,EG,STUDY001-SUBJ0011,6,HR,Heart Rate,62.8,beats/min,62.8,62.8,beats/min,Y,CHEST,SUPINE,12-LEAD ECG,,,NORMAL,BASELINE,2,2025-03-29,1,PREDOSE,1
STUDY001,EG,STUDY001-SUBJ0011,7,QT,QT Interval,418.3,msec,418.3,418.3,msec,Y,CHEST,SUPINE,12-LEAD ECG,,,NORMAL,BASELINE,2,2025-03-29,1,PREDOSE,1
STUDY001,EG,STUDY001-SUBJ0011,8,QTC,QTc Interval,412.4,msec,412.4,412.4,msec,Y,CHEST,SUPINE,12-LEAD ECG,,,NORMAL,BASELINE,2,2025-03-29,1,PREDOSE,1
STUDY001,EG,STUDY001-SUBJ0011,9,PR,PR Interval,150.3,msec,150.3,150.3,msec,Y,CHEST,SUPINE,12-LEAD ECG,,,NORMAL,BASELINE,2,2025-03-29,1,PREDOSE,1
STUDY001,EG,STUDY001-SUBJ0011,10,QRS,QRS Duration,85.7,msec,85.7,85.7,msec,Y,CHEST,SUPINE,12-LEAD ECG,,,NORMAL,BASELINE,2,2025-03-29,1,PREDOSE,1
STUDY001,EG,STUDY001-SUBJ0011,11,HR,Heart Rate,64.6,beats/min,64.6,64.6,beats/min,,CHEST,SUPINE,12-LEAD ECG,,,NORMAL,WEEK 4,3,2025-04-25,28,PREDOSE,1
STUDY001,EG,STUDY001-SUBJ0011,12,QT,QT Interval,416.7,msec,416.7,416.7,msec,,CHEST,SUPINE,12-LEAD ECG,,,NORMAL,WEEK 4,3,2025-04-25,28,PREDOSE,1
STUDY001,EG,STUDY001-SUBJ0011,13,QTC,QTc Interval,414.3,msec,414.3,414.3,msec,,CHEST,SUPINE,12-LEAD ECG,,,NORMAL,WEEK 4,3,2025-04-25,28,PREDOSE,1
STUDY001,EG,STUDY001-SUBJ0011,14,PR,PR Interval,154.1,msec,154.1,154.1,msec,,CHEST,SUPINE,12-LEAD ECG,,,NORMAL,WEEK 4,3,2025-04-25,28,PREDOSE,1
STUDY001,EG,STUDY001-SUBJ0011,15,QRS,QRS Duration,80.1,msec,80.1,80.1,msec,,CHEST,SUPINE,12-LEAD ECG,,,NORMAL,WEEK 4,3,2025-04-25,28,PREDOSE,1
STUDY001,EG,STUDY001-SUBJ0011,16,HR,Heart Rate,66.3,beats/min,66.3,66.3,beats/min,,CHEST,SUPINE,12-LEAD ECG,,,NORMAL,WEEK 12,4,2025-06-20,84,PREDOSE,1
STUDY001,EG,STUDY001-SUBJ0011,17,QT,QT Interval,411.6,msec,411.6,411.6,msec,,CHEST,SUPINE,12-LEAD ECG,,,NORMAL,WEEK 12,4,2025-06-20,84,PREDOSE,1
STUDY001,EG,STUDY001-SUBJ0011,18,QTC,QTc Interval,414.3,msec,414.3,414.3,msec,,CHEST,SUPINE,12-LEAD ECG,,,NORMAL,WEEK 12,4,2025-06-20,84,PREDOSE,1
STUDY001,EG,STUDY001-SUBJ0011,19,PR,PR Interval,149.7,msec,149.7,149.7,msec,,CHEST,SUPINE,12-LEAD ECG,,,NORMAL,WEEK 12,4,2025-06-20,84,PREDOSE,1
STUDY001,EG,STUDY001-SUBJ0011,20,QRS,QRS Duration,81.6,msec,81.6,81.6,msec,,CHEST,SUPINE,12-LEAD ECG,,,NORMAL,WEEK 12,4,2025-06-20,84,PREDOSE,1
STUDY001,EG,STUDY001-SUBJ0011,21,HR,Heart Rate,63.1,beats/min,63.1,63.1,beats/min,,CHEST,SUPINE,12-LEAD ECG,,,NORMAL,END OF TREATMENT,5,2025-08-15,140,PREDOSE,1
STUDY001,EG,STUDY001-SUBJ0011,22,QT,QT Interval,411.6,msec,411.6,411.6,msec,,CHEST,SUPINE,12-LEAD ECG,,,NORMAL,END OF TREATMENT,5,2025-08-15,140,PREDOSE,1
STUDY001,EG,STUDY001-SUBJ0011,23,QTC,QTc Interval,412.0,msec,412.0,412.0,msec,,CHEST,SUPINE,12-LEAD ECG,,,NORMAL,END OF TREATMENT,5,2025-08-15,140,PREDOSE,1
STUDY001,EG,STUDY001-SUBJ0011,24,PR,PR Interval,156.3,msec,156.3,156.3,msec,,CHEST,SUPINE,12-LEAD ECG,,,NORMAL,END OF TREATMENT,5,2025-08-15,140,PREDOSE,1
STUDY001,EG,STUDY001-SUBJ0011,25,QRS,QRS Duration,82.6,msec,82.6,82.6,msec,,CHEST,SUPINE,12-LEAD ECG,,,NORMAL,END OF TREATMENT,5,2025-08-15,140,PREDOSE,1
STUDY001,EG,STUDY001-SUBJ0012,1,HR,Heart Rate,72.6,beats/min,72.6,72.6,beats/min,,CHEST,SUPINE,12-LEAD ECG,,,NORMAL,SCREENING,1,2025-04-05,-14,PREDOSE,1
STUDY001,EG,STUDY001-SUBJ0012,2,QT,QT Interval,408.3,msec,408.3,408.3,msec,,CHEST,SUPINE,12-LEAD ECG,,,NORMAL,SCREENING,1,2025-04-05,-14,PREDOSE,1
STUDY001,EG,STUDY001-SUBJ0012,3,QTC,QTc Interval,397.4,msec,397.4,397.4,msec,,CHEST,SUPINE,12-LEAD ECG,,,NORMAL,SCREENING,1,2025-04-05,-14,PREDOSE,1
STUDY001,EG,STUDY001-SUBJ0012,4,PR,PR Interval,153.9,msec,153.9,153.9,msec,,CHEST,SUPINE,12-LEAD ECG,,,NORMAL,SCREENING,1,2025-04-05,-14,PREDOSE,1
STUDY001,EG,STUDY001-SUBJ0012,5,QRS,QRS Duration,87.9,msec,87.9,87.9,msec,,CHEST,SUPINE,12-LEAD ECG,,,NORMAL,SCREENING,1,2025-04-05,-14,PREDOSE,1
STUDY001,EG,STUDY001-SUBJ0012,6,HR,Heart Rate,71.6,beats/min,71.6,71.6,beats/min,Y,CHEST,SUPINE,12-LEAD ECG,,,NORMAL,BASELINE,2,2025-04-19,1,PREDOSE,1
STUDY001,EG,STUDY001-SUBJ0012,7,QT,QT Interval,414.0,msec,414.0,414.0,msec,Y,CHEST,SUPINE,12-LEAD ECG,,NOT DONE,NORMAL,BASELINE,2,2025-04-19,1,PREDOSE,1
STUDY001,EG,STUDY001-SUBJ0012,8,QTC,QTc Interval,399.4,msec,399.4,399.4,msec,Y,CHEST,SUPINE,12-LEAD ECG,,,NORMAL,BASELINE,2,2025-04-19,1,PREDOSE,1
STUDY001,EG,STUDY001-SUBJ0012,9,PR,PR Interval,158.0,msec,158.0,158.0,msec,Y,CHEST,SUPINE,12-LEAD ECG,,,NORMAL,BASELINE,2,2025-04-19,1,PREDOSE,1
STUDY001,EG,STUDY001-SUBJ0012,10,QRS,QRS Duration,82.6,msec,82.6,82.6,msec,Y,CHEST,SUPINE,12-LEAD ECG,,,NORMAL,BASELINE,2,2025-04-19,1,PREDOSE,1
STUDY001,EG,STUDY001-SUBJ0012,11,HR,Heart Rate,64.0,beats/min,64.0,64.0,beats/min,,CHEST,SUPINE,12-LEAD ECG,,,NORMAL,WEEK 4,3,2025-05-16,28,PREDOSE,1
STUDY001,EG,STUDY001-SUBJ0012,12,QT,QT Interval,407.2,msec,407.2,407.2,msec,,CHEST,SUPINE,12-LEAD ECG,,NOT DONE,NORMAL,WEEK 4,3,2025-05-16,28,PREDOSE,1
STUDY001,EG,STUDY001-SUBJ0012,13,QTC,QTc Interval,394.2,msec,394.2,394.2,msec,,CHEST,SUPINE,12-LEAD ECG,,,NORMAL,WEEK 4,3,2025-05-16,28,PREDOSE,1
STUDY001,EG,STUDY001-SUBJ0012,14,PR,PR Interval,161.3,msec,161.3,161.3,msec,,CHEST,SUPINE,12-LEAD ECG,,,NORMAL,WEEK 4,3,2025-05-16,28,PREDOSE,1
STUDY001,EG,STUDY001-SUBJ0012,15,QRS,QRS Duration,88.6,msec,88.6,88.6,msec,,CHEST,SUPINE,12-LEAD ECG,,,NORMAL,WEEK 4,3,2025-05-16,28,PREDOSE,1
STUDY001,EG,STUDY001-SUBJ0012,16,HR,Heart Rate,69.9,beats/min,69.9,69.9,beats/min,,CHEST,SUPINE,12-LEAD ECG,,,NORMAL,WEEK 12,4,2025-07-11,84,PREDOSE,1
STUDY001,EG,STUDY001-SUBJ0012,17,QT,QT Interval,413.3,msec,413.3,413.3,msec,,CHEST,SUPINE,12-LEAD ECG,,,NORMAL,WEEK 12,4,2025-07-11,84,PREDOSE,1
STUDY001,EG,STUDY001-SUBJ0012,18,QTC,QTc Interval,400.9,msec,400.9,400.9,msec,,CHEST,SUPINE,12-LEAD ECG,,,NORMAL,WEEK 12,4,2025-07-11,84,PREDOSE,1
STUDY001,EG,STUDY001-SUBJ0012,19,PR,PR Interval,153.7,msec,153.7,153.7,msec,,CHEST,SUPINE,12-LEAD ECG,,,NORMAL,WEEK 12,4,2025-07-11,84,PREDOSE,1
STUDY001,EG,STUDY001-SUBJ0012,20,QRS,QRS Duration,87.3,msec,87.3,87.3,msec,,CHEST,SUPINE,12-LEAD ECG,,,NORMAL,WEEK 12,4,2025-07-11,84,PREDOSE,1
STUDY001,EG,STUDY001-SUBJ0012,21,HR,Heart Rate,65.6,beats/min,65.6,65.6,beats/min,,CHEST,SUPINE,12-LEAD ECG,,,NORMAL,END OF TREATMENT,5,2025-09-05,140,PREDOSE,1
STUDY001,EG,STUDY001-SUBJ0012,22,QT,QT Interval,406.9,msec,406.9,406.9,msec,,CHEST,SUPINE,12-LEAD ECG,,,NORMAL,END OF TREATMENT,5,2025-09-05,140,PREDOSE,1
STUDY001,EG,STUDY001-SUBJ0012,23,QTC,QTc Interval,393.4,msec,393.4,393.4,msec,,CHEST,SUPINE,12-LEAD ECG,,,NORMAL,END OF TREATMENT,5,2025-09-05,140,PREDOSE,1
STUDY001,EG,STUDY001-SUBJ0012,24,PR,PR Interval,153.8,msec,153.8,153.8,msec,,CHEST,SUPINE,12-LEAD ECG,,,NORMAL,END OF TREATMENT,5,2025-09-05,140,PREDOSE,1
STUDY001,EG,STUDY001-SUBJ0012,25,QRS,QRS Duration,88.4,msec,88.4,88.4,msec,,CHEST,SUPINE,12-LEAD ECG,,NOT DONE,NORMAL,END OF TREATMENT,5,2025-09-05,140,PREDOSE,1
STUDY001,EG,STUDY001-SUBJ0013,1,HR,Heart Rate,75.6,beats/min,75.6,75.6,beats/min,,CHEST,SUPINE,12-LEAD ECG,,,NORMAL,SCREENING,1,2025-03-21,-14,PREDOSE,1
STUDY001,EG,STUDY001-SUBJ0013,2,QT,QT Interval,396.8,msec,396.8,396.8,msec,,CHEST,SUPINE,12-LEAD ECG,,,NORMAL,SCREENING,1,2025-03-21,-14,PREDOSE,1
STUDY001,EG,STUDY001-SUBJ0013,3,QTC,QTc Interval,415.9,msec,415.9,415.9,msec,,CHEST,SUPINE,12-LEAD ECG,,,NORMAL,SCREENING,1,2025-03-21,-14,PREDOSE,1
STUDY001,EG,STUDY001-SUBJ0013,4,PR,PR Interval,167.0,msec,167.0,167.0,msec,,CHEST,SUPINE,12-LEAD ECG,,,NORMAL,SCREENING,1,2025-03-21,-14,PREDOSE,1
STUDY001,EG,STUDY001-SUBJ0013,5,QRS,QRS Duration,89.4,msec,89.4,89.4,msec,,CHEST,SUPINE,12-LEAD ECG,,,NORMAL,SCREENING,1,2025-03-21,-14,PREDOSE,1
STUDY001,EG,STUDY001-SUBJ0013,6,HR,Heart Rate,78.8,beats/min,78.8,78.8,beats/min,Y,CHEST,SUPINE,12-LEAD ECG,,,NORMAL,BASELINE,2,2025-04-04,1,PREDOSE,1
STUDY001,EG,STUDY001-SUBJ0013,7,QT,QT Interval,394.7,msec,394.7,394.7,msec,Y,CHEST,SUPINE,12-LEAD ECG,,,NORMAL,BASELINE,2,2025-04-04,1,PREDOSE,1
STUDY001,EG,STUDY001-SUBJ0013,8,QTC,QTc Interval,421.2,msec,421.2,421.2,msec,Y,CHEST,SUPINE,12-LEAD ECG,,,NORMAL,BASELINE,2,2025-04-04,1,PREDOSE,1
STUDY001,EG,STUDY001-SUBJ0013,9,PR,PR Interval,164.6,msec,164.6,164.6,msec,Y,CHEST,SUPINE,12-LEAD ECG,,NOT DONE,NORMAL,BASELINE,2,2025-04-04,1,PREDOSE,1
STUDY001,EG,STUDY001-SUBJ0013,10,QRS,QRS Duration,93.8,msec,93.8,93.8,msec,Y,CHEST,SUPINE,12-LEAD ECG,,,NORMAL,BASELINE,2,2025-04-04,1,PREDOSE,1
STUDY001,EG,STUDY001-SUBJ0013,11,HR,Heart Rate,70.6,beats/min,70.6,70.6,beats/min,,CHEST,SUPINE,12-LEAD ECG,,,NORMAL,WEEK 4,3,2025-05-01,28,PREDOSE,1
STUDY001,EG,STUDY001-SUBJ0013,12,QT,QT Interval,393.6,msec,393.6,393.6,msec,,CHEST,SUPINE,12-LEAD ECG,,,NORMAL,WEEK 4,3,2025-05-01,28,PREDOSE,1
STUDY001,EG,STUDY001-SUBJ0013,13,QTC,QTc Interval,421.1,msec,421.1,421.1,msec,,CHEST,SUPINE,12-LEAD ECG,,,NORMAL,WEEK 4,3,2025-05-01,28,PREDOSE,1
STUDY001,EG,STUDY001-SUBJ0013,14,PR,PR Interval,172.6,msec,172.6,172.6,msec,,CHEST,SUPINE,12-LEAD ECG,,,NORMAL,WEEK 4,3,2025-05-01,28,PREDOSE,1
STUDY001,EG,STUDY001-SUBJ0013,15,QRS,QRS Duration,88.1,msec,88.1,88.1,msec,,CHEST,SUPINE,12-LEAD ECG,,,NORMAL,WEEK 4,3,2025-05-01,28,PREDOSE,1
STUDY001,EG,STUDY001-SUBJ0013,16,HR,Heart Rate,78.5,beats/min,78.5,78.5,beats/min,,CHEST,SUPINE,12-LEAD ECG,,,NORMAL,WEEK 12,4,2025-06-26,84,PREDOSE,1
STUDY001,EG,STUDY001-SUBJ0013,17,QT,QT Interval,391.8,msec,391.8,391.8,msec,,CHEST,SUPINE,12-LEAD ECG,,,NORMAL,WEEK 12,4,2025-06-26,84,PREDOSE,1
STUDY001,EG,STUDY001-SUBJ0013,18,QTC,QTc Interval,421.2,msec,421.2,421.2,msec,,CHEST,SUPINE,12-LEAD ECG,,,NORMAL,WEEK 12,4,2025-06-26,84,PREDOSE,1
STUDY001,EG,STUDY001-SUBJ0013,19,PR,PR Interval,167.7,msec,167.7,167.7,msec,,CHEST,SUPINE,12-LEAD ECG,,,NORMAL,WEEK 12,4,2025-06-26,84,PREDOSE,1
STUDY001,EG,STUDY001-SUBJ0013,20,QRS,QRS Duration,93.2,msec,93.2,93.2,msec,,CHEST,SUPINE,12-LEAD ECG,,,NORMAL,WEEK 12,4,2025-06-26,84,PREDOSE,1
STUDY001,EG,STUDY001-SUBJ0013,21,HR,Heart Rate,75.6,beats/min,75.6,75.6,beats/min,,CHEST,SUPINE,12-LEAD ECG,,,NORMAL,END OF TREATMENT,5,2025-08-21,140,PREDOSE,1
STUDY001,EG,STUDY001-SUBJ0013,22,QT,QT Interval,394.8,msec,394.8,394.8,msec,,CHEST,SUPINE,12-LEAD ECG,,,NORMAL,END OF TREATMENT,5,2025-08-21,140,PREDOSE,1
STUDY001,EG,STUDY001-SUBJ0013,23,QTC,QTc Interval,416.6,msec,416.6,416.6,msec,,CHEST,SUPINE,12-LEAD ECG,,,NORMAL,END OF TREATMENT,5,2025-08-21,140,PREDOSE,1
STUDY001,EG,STUDY001-SUBJ0013,24,PR,PR Interval,173.8,msec,173.8,173.8,msec,,CHEST,SUPINE,12-LEAD ECG,,,NORMAL,END OF TREATMENT,5,2025-08-21,140,PREDOSE,1
STUDY001,EG,STUDY001-SUBJ0013,25,QRS,QRS Duration,88.5,msec,88.5,88.5,msec,,CHEST,SUPINE,12-LEAD ECG,,NOT DONE,NORMAL,END OF TREATMENT,5,2025-08-21,140,PREDOSE,1
STUDY001,EG,STUDY001-SUBJ0014,1,HR,Heart Rate,69.2,beats/min,69.2,69.2,beats/min,,CHEST,SUPINE,12-LEAD ECG,,,NORMAL,SCREENING,1,2025-11-21,-14,PREDOSE,1
STUDY001,EG,STUDY001-SUBJ0014,2,QT,QT Interval,387.0,msec,387.0,387.0,msec,,CHEST,SUPINE,12-LEAD ECG,,NOT DONE,NORMAL,SCREENING,1,2025-11-21,-14,PREDOSE,1
STUDY001,EG,STUDY001-SUBJ0014,3,QTC,QTc Interval,405.3,msec,405.3,405.3,msec,,CHEST,SUPINE,12-LEAD ECG,,,NORMAL,SCREENING,1,2025-11-21,-14,PREDOSE,1
STUDY001,EG,STUDY001-SUBJ0014,4,PR,PR Interval,159.8,msec,159.8,159.8,msec,,CHEST,SUPINE,12-LEAD ECG,,NOT DONE,NORMAL,SCREENING,1,2025-11-21,-14,PREDOSE,1
STUDY001,EG,STUDY001-SUBJ0014,5,QRS,QRS Duration,96.9,msec,96.9,96.9,msec,,CHEST,SUPINE,12-LEAD ECG,,,NORMAL,SCREENING,1,2025-11-21,-14,PREDOSE,1
STUDY001,EG,STUDY001-SUBJ0014,6,HR,Heart Rate,70.4,beats/min,70.4,70.4,beats/min,Y,CHEST,SUPINE,12-LEAD ECG,,,NORMAL,BASELINE,2,2025-12-05,1,PREDOSE,1
STUDY001,EG,STUDY001-SUBJ0014,7,QT,QT Interval,382.2,msec,382.2,382.2,msec,Y,CHEST,SUPINE,12-LEAD ECG,,,NORMAL,BASELINE,2,2025-12-05,1,PREDOSE,1
STUDY001,EG,STUDY001-SUBJ0014,8,QTC,QTc Interval,402.5,msec,402.5,402.5,msec,Y,CHEST,SUPINE,12-LEAD ECG,,,NORMAL,BASELINE,2,2025-12-05,1,PREDOSE,1
STUDY001,EG,STUDY001-SUBJ0014,9,PR,PR Interval,164.7,msec,164.7,164.7,msec,Y,CHEST,SUPINE,12-LEAD ECG,,,NORMAL,BASELINE,2,2025-12-05,1,PREDOSE,1
STUDY001,EG,STUDY001-SUBJ0014,10,QRS,QRS Duration,97.6,msec,97.6,97.6,msec,Y,CHEST,SUPINE,12-LEAD ECG,,,NORMAL,BASELINE,2,2025-12-05,1,PREDOSE,1
STUDY001,EG,STUDY001-SUBJ0015,1,HR,Heart Rate,77.7,beats/min,77.7,77.7,beats/min,,CHEST,SUPINE,12-LEAD ECG,,,NORMAL,SCREENING,1,2025-05-18,-14,PREDOSE,1
STUDY001,EG,STUDY001-SUBJ0015,2,QT,QT Interval,424.5,msec,424.5,424.5,msec,,CHEST,SUPINE,12-LEAD ECG,,,NORMAL,SCREENING,1,2025-05-18,-14,PREDOSE,1
STUDY001,EG,STUDY001-SUBJ0015,3,QTC,QTc Interval,440.9,msec,440.9,440.9,msec,,CHEST,SUPINE,12-LEAD ECG,,,NORMAL,SCREENING,1,2025-05-18,-14,PREDOSE,1
STUDY001,EG,STUDY001-SUBJ0015,4,PR,PR Interval,144.1,msec,144.1,144.1,msec,,CHEST,SUPINE,12-LEAD ECG,,,NORMAL,SCREENING,1,2025-05-18,-14,PREDOSE,1
STUDY001,EG,STUDY001-SUBJ0015,5,QRS,QRS Duration,87.6,msec,87.6,87.6,msec,,CHEST,SUPINE,12-LEAD ECG,,,NORMAL,SCREENING,1,2025-05-18,-14,PREDOSE,1
STUDY001,EG,STUDY001-SUBJ0015,6,HR,Heart Rate,72.4,beats/min,72.4,72.4,beats/min,Y,CHEST,SUPINE,12-LEAD ECG,,,NORMAL,BASELINE,2,2025-06-01,1,PREDOSE,1
STUDY001,EG,STUDY001-SUBJ0015,7,QT,QT Interval,419.4,msec,419.4,419.4,msec,Y,CHEST,SUPINE,12-LEAD ECG,,,NORMAL,BASELINE,2,2025-06-01,1,PREDOSE,1
STUDY001,EG,STUDY001-SUBJ0015,8,QTC,QTc Interval,439.7,msec,439.7,439.7,msec,Y,CHEST,SUPINE,12-LEAD ECG,,,NORMAL,BASELINE,2,2025-06-01,1,PREDOSE,1
STUDY001,EG,STUDY001-SUBJ0015,9,PR,PR Interval,137.4,msec,137.4,137.4,msec,Y,CHEST,SUPINE,12-LEAD ECG,,,NORMAL,BASELINE,2,2025-06-01,1,PREDOSE,1
STUDY001,EG,STUDY001-SUBJ0015,10,QRS,QRS Duration,87.6,msec,87.6,87.6,msec,Y,CHEST,SUPINE,12-LEAD ECG,,,NORMAL,BASELINE,2,2025-06-01,1,PREDOSE,1
STUDY001,EG,STUDY001-SUBJ0015,11,HR,Heart Rate,77.5,beats/min,77.5,77.5,beats/min,,CHEST,SUPINE,12-LEAD ECG,,,NORMAL,WEEK 4,3,2025-06-28,28,PREDOSE,1
STUDY001,EG,STUDY001-SUBJ0015,12,QT,QT Interval,426.3,msec,426.3,426.3,msec,,CHEST,SUPINE,12-LEAD ECG,,,NORMAL,WEEK 4,3,2025-06-28,28,PREDOSE,1
STUDY001,EG,STUDY001-SUBJ0015,13,QTC,QTc Interval,440.4,msec,440.4,440.4,msec,,CHEST,SUPINE,12-LEAD ECG,,,NORMAL,WEEK 4,3,2025-06-28,28,PREDOSE,1
STUDY001,EG,STUDY001-SUBJ0015,14,PR,PR Interval,146.3,msec,146.3,146.3,msec,,CHEST,SUPINE,12-LEAD ECG,,,NORMAL,WEEK 4,3,2025-06-28,28,PREDOSE,1
STUDY001,EG,STUDY001-SUBJ0015,15,QRS,QRS Duration,82.6,msec,82.6,82.6,msec,,CHEST,SUPINE,12-LEAD ECG,,,NORMAL,WEEK 4,3,2025-06-28,28,PREDOSE,1
STUDY001,EG,STUDY001-SUBJ0015,16,HR,Heart Rate,80.7,beats/min,80.7,80.7,beats/min,,CHEST,SUPINE,12-LEAD ECG,,,NORMAL,WEEK 12,4,2025-08-23,84,PREDOSE,1
STUDY001,EG,STUDY001-SUBJ0015,17,QT,QT Interval,424.9,msec,424.9,424.9,msec,,CHEST,SUPINE,12-LEAD ECG,,,NORMAL,WEEK 12,4,2025-08-23,84,PREDOSE,1
STUDY001,EG,STUDY001-SUBJ0015,18,QTC,QTc Interval,438.1,msec,438.1,438.1,msec,,CHEST,SUPINE,12-LEAD ECG,,,NORMAL,WEEK 12,4,2025-08-23,84,PREDOSE,1
STUDY001,EG,STUDY001-SUBJ0015,19,PR,PR Interval,144.9,msec,144.9,144.9,msec,,CHEST,SUPINE,12-LEAD ECG,,,NORMAL,WEEK 12,4,2025-08-23,84,PREDOSE,1
STUDY001,EG,STUDY001-SUBJ0015,20,QRS,QRS Duration,86.9,msec,86.9,86.9,msec,,CHEST,SUPINE,12-LEAD ECG,,,NORMAL,WEEK 12,4,2025-08-23,84,PREDOSE,1
STUDY001,EG,STUDY001-SUBJ0015,21,HR,Heart Rate,78.0,beats/min,78.0,78.0,beats/min,,CHEST,SUPINE,12-LEAD ECG,,,NORMAL,END OF TREATMENT,5,2025-10-18,140,PREDOSE,1
STUDY001,EG,STUDY001-SUBJ0015,22,QT,QT Interval,427.3,msec,427.3,427.3,msec,,CHEST,SUPINE,12-LEAD ECG,,,NORMAL,END OF TREATMENT,5,2025-10-18,140,PREDOSE,1
STUDY001,EG,STUDY001-SUBJ0015,23,QTC,QTc Interval,439.0,msec,439.0,439.0,msec,,CHEST,SUPINE,12-LEAD ECG,,,NORMAL,END OF TREATMENT,5,2025-10-18,140,PREDOSE,1
STUDY001,EG,STUDY001-SUBJ0015,24,PR,PR Interval,138.3,msec,138.3,138.3,msec,,CHEST,SUPINE,12-LEAD ECG,,,NORMAL,END OF TREATMENT,5,2025-10-18,140,PREDOSE,1
STUDY001,EG,STUDY001-SUBJ0015,25,QRS,QRS Duration,86.3,msec,86.3,86.3,msec,,CHEST,SUPINE,12-LEAD ECG,,,NORMAL,END OF TREATMENT,5,2025-10-18,140,PREDOSE,1
STUDY001,EG,STUDY001-SUBJ0016,1,HR,Heart Rate,71.2,beats/min,71.2,71.2,beats/min,,CHEST,SUPINE,12-LEAD ECG,,,NORMAL,SCREENING,1,2025-03-07,-14,PREDOSE,1
STUDY001,EG,STUDY001-SUBJ0016,2,QT,QT Interval,377.8,msec,377.8,377.8,msec,,CHEST,SUPINE,12-LEAD ECG,,,NORMAL,SCREENING,1,2025-03-07,-14,PREDOSE,1
STUDY001,EG,STUDY001-SUBJ0016,3,QTC,QTc Interval,400.9,msec,400.9,400.9,msec,,CHEST,SUPINE,12-LEAD ECG,,,NORMAL,SCREENING,1,2025-03-07,-14,PREDOSE,1
STUDY001,EG,STUDY001-SUBJ0016,4,PR,PR Interval,147.0,msec,147.0,147.0,msec,,CHEST,SUPINE,12-LEAD ECG,,,NORMAL,SCREENING,1,2025-03-07,-14,PREDOSE,1
STUDY001,EG,STUDY001-SUBJ0016,5,QRS,QRS Duration,91.1,msec,91.1,91.1,msec,,CHEST,SUPINE,12-LEAD ECG,,,NORMAL,SCREENING,1,2025-03-07,-14,PREDOSE,1
STUDY001,EG,STUDY001-SUBJ0016,6,HR,Heart Rate,72.0,beats/min,72.0,72.0,beats/min,Y,CHEST,SUPINE,12-LEAD ECG,,,NORMAL,BASELINE,2,2025-03-21,1,PREDOSE,1
STUDY001,EG,STUDY001-SUBJ0016,7,QT,QT Interval,372.8,msec,372.8,372.8,msec,Y,CHEST,SUPINE,12-LEAD ECG,,,NORMAL,BASELINE,2,2025-03-21,1,PREDOSE,1
STUDY001,EG,STUDY001-SUBJ0016,8,QTC,QTc Interval,402.7,msec,402.7,402.7,msec,Y,CHEST,SUPINE,12-LEAD ECG,,,NORMAL,BASELINE,2,2025-03-21,1,PREDOSE,1
STUDY001,EG,STUDY001-SUBJ0016,9,PR,PR Interval,149.1,msec,149.1,149.1,msec,Y,CHEST,SUPINE,12-LEAD ECG,,,NORMAL,BASELINE,2,2025-03-21,1,PREDOSE,1
STUDY001,EG,STUDY001-SUBJ0016,10,QRS,QRS Duration,89.1,msec,89.1,89.1,msec,Y,CHEST,SUPINE,12-LEAD ECG,,,NORMAL,BASELINE,2,2025-03-21,1,PREDOSE,1
STUDY001,EG,STUDY001-SUBJ0016,11,HR,Heart Rate,67.0,beats/min,67.0,67.0,beats/min,,CHEST,SUPINE,12-LEAD ECG,TECHNICAL FAILURE,,NORMAL,WEEK 4,3,2025-04-17,28,PREDOSE,1
STUDY001,EG,STUDY001-SUBJ0016,12,QT,QT Interval,377.0,msec,377.0,377.0,msec,,CHEST,SUPINE,12-LEAD ECG,,,NORMAL,WEEK 4,3,2025-04-17,28,PREDOSE,1
STUDY001,EG,STUDY001-SUBJ0016,13,QTC,QTc Interval,397.7,msec,397.7,397.7,msec,,CHEST,SUPINE,12-LEAD ECG,,,NORMAL,WEEK 4,3,2025-04-17,28,PREDOSE,1
STUDY001,EG,STUDY001-SUBJ0016,14,PR,PR Interval,154.0,msec,154.0,154.0,msec,,CHEST,SUPINE,12-LEAD ECG,,,NORMAL,WEEK 4,3,2025-04-17,28,PREDOSE,1
STUDY001,EG,STUDY001-SUBJ0016,15,QRS,QRS Duration,85.9,msec,85.9,85.9,msec,,CHEST,SUPINE,12-LEAD ECG,,,NORMAL,WEEK 4,3,2025-04-17,28,PREDOSE,1
STUDY001,EG,STUDY001-SUBJ0016,16,HR,Heart Rate,72.2,beats/min,72.2,72.2,beats/min,,CHEST,SUPINE,12-LEAD ECG,,NOT DONE,NORMAL,WEEK 12,4,2025-06-12,84,PREDOSE,1
STUDY001,EG,STUDY001-SUBJ0016,17,QT,QT Interval,378.3,msec,378.3,378.3,msec,,CHEST,SUPINE,12-LEAD ECG,,,NORMAL,WEEK 12,4,2025-06-12,84,PREDOSE,1
STUDY001,EG,STUDY001-SUBJ0016,18,QTC,QTc Interval,393.7,msec,393.7,393.7,msec,,CHEST,SUPINE,12-LEAD ECG,,,NORMAL,WEEK 12,4,2025-06-12,84,PREDOSE,1
STUDY001,EG,STUDY001-SUBJ0016,19,PR,PR Interval,148.8,msec,148.8,148.8,msec,,CHEST,SUPINE,12-LEAD ECG,,,NORMAL,WEEK 12,4,2025-06-12,84,PREDOSE,1
STUDY001,EG,STUDY001-SUBJ0016,20,QRS,QRS Duration,84.3,msec,84.3,84.3,msec,,CHEST,SUPINE,12-LEAD ECG,,,NORMAL,WEEK 12,4,2025-06-12,84,PREDOSE,1
STUDY001,EG,STUDY001-SUBJ0016,21,HR,Heart Rate,70.9,beats/min,70.9,70.9,beats/min,,CHEST,SUPINE,12-LEAD ECG,,,NORMAL,END OF TREATMENT,5,2025-08-07,140,PREDOSE,1
STUDY001,EG,STUDY001-SUBJ0016,22,QT,QT Interval,376.2,msec,376.2,376.2,msec,,CHEST,SUPINE,12-LEAD ECG,,,NORMAL,END OF TREATMENT,5,2025-08-07,140,PREDOSE,1
STUDY001,EG,STUDY001-SUBJ0016,23,QTC,QTc Interval,397.7,msec,397.7,397.7,msec,,CHEST,SUPINE,12-LEAD ECG,TECHNICAL FAILURE,,NORMAL,END OF TREATMENT,5,2025-08-07,140,PREDOSE,1
STUDY001,EG,STUDY001-SUBJ0016,24,PR,PR Interval,148.8,msec,148.8,148.8,msec,,CHEST,SUPINE,12-LEAD ECG,,,NORMAL,END OF TREATMENT,5,2025-08-07,140,PREDOSE,1
STUDY001,EG,STUDY001-SUBJ0016,25,QRS,QRS Duration,84.9,msec,84.9,84.9,msec,,CHEST,SUPINE,12-LEAD ECG,,,NORMAL,END OF TREATMENT,5,2025-08-07,140,PREDOSE,1
STUDY001,EG,STUDY001-SUBJ0017,1,HR,Heart Rate,66.2,beats/min,66.2,66.2,beats/min,,CHEST,SUPINE,12-LEAD ECG,,,NORMAL,SCREENING,1,2025-02-12,-14,PREDOSE,1
STUDY001,EG,STUDY001-SUBJ0017,2,QT,QT Interval,410.5,msec,410.5,410.5,msec,,CHEST,SUPINE,12-LEAD ECG,,NOT DONE,NORMAL,SCREENING,1,2025-02-12,-14,PREDOSE,1
STUDY001,EG,STUDY001-SUBJ0017,3,QTC,QTc Interval,418.7,msec,418.7,418.7,msec,,CHEST,SUPINE,12-LEAD ECG,,,NORMAL,SCREENING,1,2025-02-12,-14,PREDOSE,1
STUDY001,EG,STUDY001-SUBJ0017,4,PR,PR Interval,150.7,msec,150.7,150.7,msec,,CHEST,SUPINE,12-LEAD ECG,,,NORMAL,SCREENING,1,2025-02-12,-14,PREDOSE,1
STUDY001,EG,STUDY001-SUBJ0017,5,QRS,QRS Duration,80.7,msec,80.7,80.7,msec,,CHEST,SUPINE,12-LEAD ECG,,,NORMAL,SCREENING,1,2025-02-12,-14,PREDOSE,1
STUDY001,EG,STUDY001-SUBJ0017,6,HR,Heart Rate,63.8,beats/min,63.8,63.8,beats/min,Y,CHEST,SUPINE,12-LEAD ECG,,,NORMAL,BASELINE,2,2025-02-26,1,PREDOSE,1
STUDY001,EG,STUDY001-SUBJ0017,7,QT,QT Interval,413.2,msec,413.2,413.2,msec,Y,CHEST,SUPINE,12-LEAD ECG,TECHNICAL FAILURE,,NORMAL,BASELINE,2,2025-02-26,1,PREDOSE,1
STUDY001,EG,STUDY001-SUBJ0017,8,QTC,QTc Interval,422.0,msec,422.0,422.0,msec,Y,CHEST,SUPINE,12-LEAD ECG,,,NORMAL,BASELINE,2,2025-02-26,1,PREDOSE,1
STUDY001,EG,STUDY001-SUBJ0017,9,PR,PR Interval,153.0,msec,153.0,153.0,msec,Y,CHEST,SUPINE,12-LEAD ECG,,,NORMAL,BASELINE,2,2025-02-26,1,PREDOSE,1
STUDY001,EG,STUDY001-SUBJ0017,10,QRS,QRS Duration,82.7,msec,82.7,82.7,msec,Y,CHEST,SUPINE,12-LEAD ECG,,,NORMAL,BASELINE,2,2025-02-26,1,PREDOSE,1
STUDY001,EG,STUDY001-SUBJ0017,11,HR,Heart Rate,67.0,beats/min,67.0,67.0,beats/min,,CHEST,SUPINE,12-LEAD ECG,,,NORMAL,WEEK 4,3,2025-03-25,28,PREDOSE,1
STUDY001,EG,STUDY001-SUBJ0017,12,QT,QT Interval,412.7,msec,412.7,412.7,msec,,CHEST,SUPINE,12-LEAD ECG,,,NORMAL,WEEK 4,3,2025-03-25,28,PREDOSE,1
STUDY001,EG,STUDY001-SUBJ0017,13,QTC,QTc Interval,421.2,msec,421.2,421.2,msec,,CHEST,SUPINE,12-LEAD ECG,,,NORMAL,WEEK 4,3,2025-03-25,28,PREDOSE,1
STUDY001,EG,STUDY001-SUBJ0017,14,PR,PR Interval,144.6,msec,144.6,144.6,msec,,CHEST,SUPINE,12-LEAD ECG,,,NORMAL,WEEK 4,3,2025-03-25,28,PREDOSE,1
STUDY001,EG,STUDY001-SUBJ0017,15,QRS,QRS Duration,79.8,msec,79.8,79.8,msec,,CHEST,SUPINE,12-LEAD ECG,,,NORMAL,WEEK 4,3,2025-03-25,28,PREDOSE,1
STUDY001,EG,STUDY001-SUBJ0017,16,HR,Heart Rate,63.3,beats/min,63.3,63.3,beats/min,,CHEST,SUPINE,12-LEAD ECG,,NOT DONE,NORMAL,WEEK 12,4,2025-05-20,84,PREDOSE,1
STUDY001,EG,STUDY001-SUBJ0017,17,QT,QT Interval,415.3,msec,415.3,415.3,msec,,CHEST,SUPINE,12-LEAD ECG,,,NORMAL,WEEK 12,4,2025-05-20,84,PREDOSE,1
STUDY001,EG,STUDY001-SUBJ0017,18,QTC,QTc Interval,423.1,msec,423.1,423.1,msec,,CHEST,SUPINE,12-LEAD ECG,,,NORMAL,WEEK 12,4,2025-05-20,84,PREDOSE,1
STUDY001,EG,STUDY001-SUBJ0017,19,PR,PR Interval,149.5,msec,149.5,149.5,msec,,CHEST,SUPINE,12-LEAD ECG,,,NORMAL,WEEK 12,4,2025-05-20,84,PREDOSE,1
STUDY001,EG,STUDY001-SUBJ0017,20,QRS,QRS Duration,80.4,msec,80.4,80.4,msec,,CHEST,SUPINE,12-LEAD ECG,,,NORMAL,WEEK 12,4,2025-05-20,84,PREDOSE,1
STUDY001,EG,STUDY001-SUBJ0017,21,HR,Heart Rate,62.0,beats/min,62.0,62.0,beats/min,,CHEST,SUPINE,12-LEAD ECG,,,NORMAL,END OF TREATMENT,5,2025-07-15,140,PREDOSE,1
STUDY001,EG,STUDY001-SUBJ0017,22,QT,QT Interval,410.4,msec,410.4,410.4,msec,,CHEST,SUPINE,12-LEAD ECG,,,NORMAL,END OF TREATMENT,5,2025-07-15,140,PREDOSE,1
STUDY001,EG,STUDY001-SUBJ0017,23,QTC,QTc Interval,423.6,msec,423.6,423.6,msec,,CHEST,SUPINE,12-LEAD ECG,,,NORMAL,END OF TREATMENT,5,2025-07-15,140,PREDOSE,1
STUDY001,EG,STUDY001-SUBJ0017,24,PR,PR Interval,153.2,msec,153.2,153.2,msec,,CHEST,SUPINE,12-LEAD ECG,,,NORMAL,END OF TREATMENT,5,2025-07-15,140,PREDOSE,1
STUDY001,EG,STUDY001-SUBJ0017,25,QRS,QRS Duration,82.9,msec,82.9,82.9,msec,,CHEST,SUPINE,12-LEAD ECG,,,NORMAL,END OF TREATMENT,5,2025-07-15,140,PREDOSE,1
STUDY001,EG,STUDY001-SUBJ0018,1,HR,Heart Rate,71.5,beats/min,71.5,71.5,beats/min,,CHEST,SUPINE,12-LEAD ECG,,,NORMAL,SCREENING,1,2025-08-17,-14,PREDOSE,1
STUDY001,EG,STUDY001-SUBJ0018,2,QT,QT Interval,414.6,msec,414.6,414.6,msec,,CHEST,SUPINE,12-LEAD ECG,,,NORMAL,SCREENING,1,2025-08-17,-14,PREDOSE,1
STUDY001,EG,STUDY001-SUBJ0018,3,QTC,QTc Interval,396.7,msec,396.7,396.7,msec,,CHEST,SUPINE,12-LEAD ECG,,,NORMAL,SCREENING,1,2025-08-17,-14,PREDOSE,1
STUDY001,EG,STUDY001-SUBJ0018,4,PR,PR Interval,167.6,msec,167.6,167.6,msec,,CHEST,SUPINE,12-LEAD ECG,,,NORMAL,SCREENING,1,2025-08-17,-14,PREDOSE,1
STUDY001,EG,STUDY001-SUBJ0018,5,QRS,QRS Duration,83.2,msec,83.2,83.2,msec,,CHEST,SUPINE,12-LEAD ECG,,,NORMAL,SCREENING,1,2025-08-17,-14,PREDOSE,1
STUDY001,EG,STUDY001-SUBJ0018,6,HR,Heart Rate,70.8,beats/min,70.8,70.8,beats/min,Y,CHEST,SUPINE,12-LEAD ECG,,,NORMAL,BASELINE,2,2025-08-31,1,PREDOSE,1
STUDY001,EG,STUDY001-SUBJ0018,7,QT,QT Interval,416.8,msec,416.8,416.8,msec,Y,CHEST,SUPINE,12-LEAD ECG,,,NORMAL,BASELINE,2,2025-08-31,1,PREDOSE,1
STUDY001,EG,STUDY001-SUBJ0018,8,QTC,QTc Interval,399.9,msec,399.9,399.9,msec,Y,CHEST,SUPINE,12-LEAD ECG,,,NORMAL,BASELINE,2,2025-08-31,1,PREDOSE,1
STUDY001,EG,STUDY001-SUBJ0018,9,PR,PR Interval,161.3,msec,161.3,161.3,msec,Y,CHEST,SUPINE,12-LEAD ECG,TECHNICAL FAILURE,,NORMAL,BASELINE,2,2025-08-31,1,PREDOSE,1
STUDY001,EG,STUDY001-SUBJ0018,10,QRS,QRS Duration,85.5,msec,85.5,85.5,msec,Y,CHEST,SUPINE,12-LEAD ECG,,,NORMAL,BASELINE,2,2025-08-31,1,PREDOSE,1
STUDY001,EG,STUDY001-SUBJ0018,11,HR,Heart Rate,68.1,beats/min,68.1,68.1,beats/min,,CHEST,SUPINE,12-LEAD ECG,,,NORMAL,WEEK 4,3,2025-09-27,28,PREDOSE,1
STUDY001,EG,STUDY001-SUBJ0018,12,QT,QT Interval,420.6,msec,420.6,420.6,msec,,CHEST,SUPINE,12-LEAD ECG,,NOT DONE,NORMAL,WEEK 4,3,2025-09-27,28,PREDOSE,1
STUDY001,EG,STUDY001-SUBJ0018,13,QTC,QTc Interval,395.0,msec,395.0,395.0,msec,,CHEST,SUPINE,12-LEAD ECG,,,NORMAL,WEEK 4,3,2025-09-27,28,PREDOSE,1
STUDY001,EG,STUDY001-SUBJ0018,14,PR,PR Interval,162.2,msec,162.2,162.2,msec,,CHEST,SUPINE,12-LEAD ECG,,,NORMAL,WEEK 4,3,2025-09-27,28,PREDOSE,1
STUDY001,EG,STUDY001-SUBJ0018,15,QRS,QRS Duration,82.5,msec,82.5,82.5,msec,,CHEST,SUPINE,12-LEAD ECG,,,NORMAL,WEEK 4,3,2025-09-27,28,PREDOSE,1
STUDY001,EG,STUDY001-SUBJ0018,16,HR,Heart Rate,67.6,beats/min,67.6,67.6,beats/min,,CHEST,SUPINE,12-LEAD ECG,,,NORMAL,WEEK 12,4,2025-11-22,84,PREDOSE,1
STUDY001,EG,STUDY001-SUBJ0018,17,QT,QT Interval,422.6,msec,422.6,422.6,msec,,CHEST,SUPINE,12-LEAD ECG,,,NORMAL,WEEK 12,4,2025-11-22,84,PREDOSE,1
STUDY001,EG,STUDY001-SUBJ0018,18,QTC,QTc Interval,397.9,msec,397.9,397.9,msec,,CHEST,SUPINE,12-LEAD ECG,,,NORMAL,WEEK 12,4,2025-11-22,84,PREDOSE,1
STUDY001,EG,STUDY001-SUBJ0018,19,PR,PR Interval,163.0,msec,163.0,163.0,msec,,CHEST,SUPINE,12-LEAD ECG,,,NORMAL,WEEK 12,4,2025-11-22,84,PREDOSE,1
STUDY001,EG,STUDY001-SUBJ0018,20,QRS,QRS Duration,86.6,msec,86.6,86.6,msec,,CHEST,SUPINE,12-LEAD ECG,,,NORMAL,WEEK 12,4,2025-11-22,84,PREDOSE,1
STUDY001,EG,STUDY001-SUBJ0019,1,HR,Heart Rate,74.4,beats/min,74.4,74.4,beats/min,,CHEST,SUPINE,12-LEAD ECG,,,NORMAL,SCREENING,1,2025-05-06,-14,PREDOSE,1
STUDY001,EG,STUDY001-SUBJ0019,2,QT,QT Interval,381.6,msec,381.6,381.6,msec,,CHEST,SUPINE,12-LEAD ECG,,,NORMAL,SCREENING,1,2025-05-06,-14,PREDOSE,1
STUDY001,EG,STUDY001-SUBJ0019,3,QTC,QTc Interval,424.1,msec,424.1,424.1,msec,,CHEST,SUPINE,12-LEAD ECG,,,NORMAL,SCREENING,1,2025-05-06,-14,PREDOSE,1
STUDY001,EG,STUDY001-SUBJ0019,4,PR,PR Interval,168.7,msec,168.7,168.7,msec,,CHEST,SUPINE,12-LEAD ECG,,,NORMAL,SCREENING,1,2025-05-06,-14,PREDOSE,1
STUDY001,EG,STUDY001-SUBJ0019,5,QRS,QRS Duration,101.2,msec,101.2,101.2,msec,,CHEST,SUPINE,12-LEAD ECG,,,NORMAL,SCREENING,1,2025-05-06,-14,PREDOSE,1
STUDY001,EG,STUDY001-SUBJ0019,6,HR,Heart Rate,69.1,beats/min,69.1,69.1,beats/min,Y,CHEST,SUPINE,12-LEAD ECG,,,NORMAL,BASELINE,2,2025-05-20,1,PREDOSE,1
STUDY001,EG,STUDY001-SUBJ0019,7,QT,QT Interval,383.3,msec,383.3,383.3,msec,Y,CHEST,SUPINE,12-LEAD ECG,,,NORMAL,BASELINE,2,2025-05-20,1,PREDOSE,1
STUDY001,EG,STUDY001-SUBJ0019,8,QTC,QTc Interval,427.4,msec,427.4,427.4,msec,Y,CHEST,SUPINE,12-LEAD ECG,,,NORMAL,BASELINE,2,2025-05-20,1,PREDOSE,1
STUDY001,EG,STUDY001-SUBJ0019,9,PR,PR Interval,169.6,msec,169.6,169.6,msec,Y,CHEST,SUPINE,12-LEAD ECG,,,NORMAL,BASELINE,2,2025-05-20,1,PREDOSE,1
STUDY001,EG,STUDY001-SUBJ0019,10,QRS,QRS Duration,94.2,msec,94.2,94.2,msec,Y,CHEST,SUPINE,12-LEAD ECG,,,NORMAL,BASELINE,2,2025-05-20,1,PREDOSE,1
STUDY001,EG,STUDY001-SUBJ0019,11,HR,Heart Rate,76.8,beats/min,76.8,76.8,beats/min,,CHEST,SUPINE,12-LEAD ECG,,,NORMAL,WEEK 4,3,2025-06-16,28,PREDOSE,1
STUDY001,EG,STUDY001-SUBJ0019,12,QT,QT Interval,374.5,msec,374.5,374.5,msec,,CHEST,SUPINE,12-LEAD ECG,,,NORMAL,WEEK 4,3,2025-06-16,28,PREDOSE,1
STUDY001,EG,STUDY001-SUBJ0019,13,QTC,QTc Interval,422.0,msec,422.0,422.0,msec,,CHEST,SUPINE,12-LEAD ECG,,,NORMAL,WEEK 4,3,2025-06-16,28,PREDOSE,1
STUDY001,EG,STUDY001-SUBJ0019,14,PR,PR Interval,175.4,msec,175.4,175.4,msec,,CHEST,SUPINE,12-LEAD ECG,TECHNICAL FAILURE,,NORMAL,WEEK 4,3,2025-06-16,28,PREDOSE,1
STUDY001,EG,STUDY001-SUBJ0019,15,QRS,QRS Duration,96.1,msec,96.1,96.1,msec,,CHEST,SUPINE,12-LEAD ECG,,,NORMAL,WEEK 4,3,2025-06-16,28,PREDOSE,1
STUDY001,EG,STUDY001-SUBJ0019,16,HR,Heart Rate,77.6,beats/min,77.6,77.6,beats/min,,CHEST,SUPINE,12-LEAD ECG,TECHNICAL FAILURE,,NORMAL,WEEK 12,4,2025-08-11,84,PREDOSE,1
STUDY001,EG,STUDY001-SUBJ0019,17,QT,QT Interval,382.0,msec,382.0,382.0,msec,,CHEST,SUPINE,12-LEAD ECG,,,NORMAL,WEEK 12,4,2025-08-11,84,PREDOSE,1
STUDY001,EG,STUDY001-SUBJ0019,18,QTC,QTc Interval,429.4,msec,429.4,429.4,msec,,CHEST,SUPINE,12-LEAD ECG,,,NORMAL,WEEK 12,4,2025-08-11,84,PREDOSE,1
STUDY001,EG,STUDY001-SUBJ0019,19,PR,PR Interval,171.1,msec,171.1,171.1,msec,,CHEST,SUPINE,12-LEAD ECG,,,NORMAL,WEEK 12,4,2025-08-11,84,PREDOSE,1
STUDY001,EG,STUDY001-SUBJ0019,20,QRS,QRS Duration,96.3,msec,96.3,96.3,msec,,CHEST,SUPINE,12-LEAD ECG,,,NORMAL,WEEK 12,4,2025-08-11,84,PREDOSE,1
STUDY001,EG,STUDY001-SUBJ0019,21,HR,Heart Rate,77.8,beats/min,77.8,77.8,beats/min,,CHEST,SUPINE,12-LEAD ECG,,,NORMAL,END OF TREATMENT,5,2025-10-06,140,PREDOSE,1
STUDY001,EG,STUDY001-SUBJ0019,22,QT,QT Interval,376.5,msec,376.5,376.5,msec,,CHEST,SUPINE,12-LEAD ECG,,,NORMAL,END OF TREATMENT,5,2025-10-06,140,PREDOSE,1
STUDY001,EG,STUDY001-SUBJ0019,23,QTC,QTc Interval,428.3,msec,428.3,428.3,msec,,CHEST,SUPINE,12-LEAD ECG,,,NORMAL,END OF TREATMENT,5,2025-10-06,140,PREDOSE,1
STUDY001,EG,STUDY001-SUBJ0019,24,PR,PR Interval,172.6,msec,172.6,172.6,msec,,CHEST,SUPINE,12-LEAD ECG,,,NORMAL,END OF TREATMENT,5,2025-10-06,140,PREDOSE,1
STUDY001,EG,STUDY001-SUBJ0019,25,QRS,QRS Duration,98.2,msec,98.2,98.2,msec,,CHEST,SUPINE,12-LEAD ECG,,,NORMAL,END OF TREATMENT,5,2025-10-06,140,PREDOSE,1
STUDY001,EG,STUDY001-SUBJ0020,1,HR,Heart Rate,71.7,beats/min,71.7,71.7,beats/min,,CHEST,SUPINE,12-LEAD ECG,,,NORMAL,SCREENING,1,2025-11-08,-14,PREDOSE,1
STUDY001,EG,STUDY001-SUBJ0020,2,QT,QT Interval,401.9,msec,401.9,401.9,msec,,CHEST,SUPINE,12-LEAD ECG,,,NORMAL,SCREENING,1,2025-11-08,-14,PREDOSE,1
STUDY001,EG,STUDY001-SUBJ0020,3,QTC,QTc Interval,424.2,msec,424.2,424.2,msec,,CHEST,SUPINE,12-LEAD ECG,,,NORMAL,SCREENING,1,2025-11-08,-14,PREDOSE,1
STUDY001,EG,STUDY001-SUBJ0020,4,PR,PR Interval,174.7,msec,174.7,174.7,msec,,CHEST,SUPINE,12-LEAD ECG,,,NORMAL,SCREENING,1,2025-11-08,-14,PREDOSE,1
STUDY001,EG,STUDY001-SUBJ0020,5,QRS,QRS Duration,102.1,msec,102.1,102.1,msec,,CHEST,SUPINE,12-LEAD ECG,,,NORMAL,SCREENING,1,2025-11-08,-14,PREDOSE,1
STUDY001,EG,STUDY001-SUBJ0020,6,HR,Heart Rate,77.1,beats/min,77.1,77.1,beats/min,Y,CHEST,SUPINE,12-LEAD ECG,,,NORMAL,BASELINE,2,2025-11-22,1,PREDOSE,1
STUDY001,EG,STUDY001-SUBJ0020,7,QT,QT Interval,406.3,msec,406.3,406.3,msec,Y,CHEST,SUPINE,12-LEAD ECG,,,NORMAL,BASELINE,2,2025-11-22,1,PREDOSE,1
STUDY001,EG,STUDY001-SUBJ0020,8,QTC,QTc Interval,430.3,msec,430.3,430.3,msec,Y,CHEST,SUPINE,12-LEAD ECG,,,NORMAL,BASELINE,2,2025-11-22,1,PREDOSE,1
STUDY001,EG,STUDY001-SUBJ0020,9,PR,PR Interval,172.2,msec,172.2,172.2,msec,Y,CHEST,SUPINE,12-LEAD ECG,,,NORMAL,BASELINE,2,2025-11-22,1,PREDOSE,1
STUDY001,EG,STUDY001-SUBJ0020,10,QRS,QRS Duration,97.5,msec,97.5,97.5,msec,Y,CHEST,SUPINE,12-LEAD ECG,,,NORMAL,BASELINE,2,2025-11-22,1,PREDOSE,1
STUDY001,EG,STUDY001-SUBJ0020,11,HR,Heart Rate,78.1,beats/min,78.1,78.1,beats/min,,CHEST,SUPINE,12-LEAD ECG,,,NORMAL,WEEK 4,3,2025-12-19,28,PREDOSE,1
STUDY001,EG,STUDY001-SUBJ0020,12,QT,QT Interval,410.5,msec,410.5,410.5,msec,,CHEST,SUPINE,12-LEAD ECG,,,NORMAL,WEEK 4,3,2025-12-19,28,PREDOSE,1
STUDY001,EG,STUDY001-SUBJ0020,13,QTC,QTc Interval,430.2,msec,430.2,430.2,msec,,CHEST,SUPINE,12-LEAD ECG,,,NORMAL,WEEK 4,3,2025-12-19,28,PREDOSE,1
STUDY001,EG,STUDY001-SUBJ0020,14,PR,PR Interval,173.3,msec,173.3,173.3,msec,,CHEST,SUPINE,12-LEAD ECG,,,NORMAL,WEEK 4,3,2025-12-19,28,PREDOSE,1
STUDY001,EG,STUDY001-SUBJ0020,15,QRS,QRS Duration,102.0,msec,102.0,102.0,msec,,CHEST,SUPINE,12-LEAD ECG,,NOT DONE,NORMAL,WEEK 4,3,2025-12-19,28,PREDOSE,1
STUDY001,EG,STUDY001-SUBJ0021,1,HR,Heart Rate,69.7,beats/min,69.7,69.7,beats/min,,CHEST,SUPINE,12-LEAD ECG,,,NORMAL,SCREENING,1,2025-09-06,-14,PREDOSE,1
STUDY001,EG,STUDY001-SUBJ0021,2,QT,QT Interval,410.7,msec,410.7,410.7,msec,,CHEST,SUPINE,12-LEAD ECG,,,NORMAL,SCREENING,1,2025-09-06,-14,PREDOSE,1
STUDY001,EG,STUDY001-SUBJ0021,3,QTC,QTc Interval,431.9,msec,431.9,431.9,msec,,CHEST,SUPINE,12-LEAD ECG,,,NORMAL,SCREENING,1,2025-09-06,-14,PREDOSE,1
STUDY001,EG,STUDY001-SUBJ0021,4,PR,PR Interval,161.6,msec,161.6,161.6,msec,,CHEST,SUPINE,12-LEAD ECG,,,NORMAL,SCREENING,1,2025-09-06,-14,PREDOSE,1
STUDY001,EG,STUDY001-SUBJ0021,5,QRS,QRS Duration,85.6,msec,85.6,85.6,msec,,CHEST,SUPINE,12-LEAD ECG,,,NORMAL,SCREENING,1,2025-09-06,-14,PREDOSE,1
STUDY001,EG,STUDY001-SUBJ0021,6,HR,Heart Rate,65.7,beats/min,65.7,65.7,beats/min,Y,CHEST,SUPINE,12-LEAD ECG,,,NORMAL,BASELINE,2,2025-09-20,1,PREDOSE,1
STUDY001,EG,STUDY001-SUBJ0021,7,QT,QT Interval,413.3,msec,413.3,413.3,msec,Y,CHEST,SUPINE,12-LEAD ECG,,,NORMAL,BASELINE,2,2025-09-20,1,PREDOSE,1
STUDY001,EG,STUDY001-SUBJ0021,8,QTC,QTc Interval,429.5,msec,429.5,429.5,msec,Y,CHEST,SUPINE,12-LEAD ECG,,,NORMAL,BASELINE,2,2025-09-20,1,PREDOSE,1
STUDY001,EG,STUDY001-SUBJ0021,9,PR,PR Interval,161.8,msec,161.8,161.8,msec,Y,CHEST,SUPINE,12-LEAD ECG,,,NORMAL,BASELINE,2,2025-09-20,1,PREDOSE,1
STUDY001,EG,STUDY001-SUBJ0021,10,QRS,QRS Duration,86.2,msec,86.2,86.2,msec,Y,CHEST,SUPINE,12-LEAD ECG,,,NORMAL,BASELINE,2,2025-09-20,1,PREDOSE,1
STUDY001,EG,STUDY001-SUBJ0021,11,HR,Heart Rate,73.6,beats/min,73.6,73.6,beats/min,,CHEST,SUPINE,12-LEAD ECG,,,NORMAL,WEEK 4,3,2025-10-17,28,PREDOSE,1
STUDY001,EG,STUDY001-SUBJ0021,12,QT,QT Interval,413.9,msec,413.9,413.9,msec,,CHEST,SUPINE,12-LEAD ECG,,,NORMAL,WEEK 4,3,2025-10-17,28,PREDOSE,1
STUDY001,EG,STUDY001-SUBJ0021,13,QTC,QTc Interval,431.5,msec,431.5,431.5,msec,,CHEST,SUPINE,12-LEAD ECG,,,NORMAL,WEEK 4,3,2025-10-17,28,PREDOSE,1
STUDY001,EG,STUDY001-SUBJ0021,14,PR,PR Interval,167.7,msec,167.7,167.7,msec,,CHEST,SUPINE,12-LEAD ECG,,,NORMAL,WEEK 4,3,2025-10-17,28,PREDOSE,1
STUDY001,EG,STUDY001-SUBJ0021,15,QRS,QRS Duration,89.6,msec,89.6,89.6,msec,,CHEST,SUPINE,12-LEAD ECG,TECHNICAL FAILURE,,NORMAL,WEEK 4,3,2025-10-17,28,PREDOSE,1
STUDY001,EG,STUDY001-SUBJ0021,16,HR,Heart Rate,74.2,beats/min,74.2,74.2,beats/min,,CHEST,SUPINE,12-LEAD ECG,,,NORMAL,WEEK 12,4,2025-12-12,84,PREDOSE,1
STUDY001,EG,STUDY001-SUBJ0021,17,QT,QT Interval,409.0,msec,409.0,409.0,msec,,CHEST,SUPINE,12-LEAD ECG,,,NORMAL,WEEK 12,4,2025-12-12,84,PREDOSE,1
STUDY001,EG,STUDY001-SUBJ0021,18,QTC,QTc Interval,429.6,msec,429.6,429.6,msec,,CHEST,SUPINE,12-LEAD ECG,,,NORMAL,WEEK 12,4,2025-12-12,84,PREDOSE,1
STUDY001,EG,STUDY001-SUBJ0021,19,PR,PR Interval,161.4,msec,161.4,161.4,msec,,CHEST,SUPINE,12-LEAD ECG,,,NORMAL,WEEK 12,4,2025-12-12,84,PREDOSE,1
STUDY001,EG,STUDY001-SUBJ0021,20,QRS,QRS Duration,89.8,msec,89.8,89.8,msec,,CHEST,SUPINE,12-LEAD ECG,,,NORMAL,WEEK 12,4,2025-12-12,84,PREDOSE,1
STUDY001,EG,STUDY001-SUBJ0022,1,HR,Heart Rate,73.5,beats/min,73.5,73.5,beats/min,,CHEST,SUPINE,12-LEAD ECG,,,NORMAL,SCREENING,1,2025-08-24,-14,PREDOSE,1
STUDY001,EG,STUDY001-SUBJ0022,2,QT,QT Interval,416.1,msec,416.1,416.1,msec,,CHEST,SUPINE,12-LEAD ECG,,,NORMAL,SCREENING,1,2025-08-24,-14,PREDOSE,1
STUDY001,EG,STUDY001-SUBJ0022,3,QTC,QTc Interval,403.4,msec,403.4,403.4,msec,,CHEST,SUPINE,12-LEAD ECG,,,NORMAL,SCREENING,1,2025-08-24,-14,PREDOSE,1
STUDY001,EG,STUDY001-SUBJ0022,4,PR,PR Interval,139.2,msec,139.2,139.2,msec,,CHEST,SUPINE,12-LEAD ECG,,,NORMAL,SCREENING,1,2025-08-24,-14,PREDOSE,1
STUDY001,EG,STUDY001-SUBJ0022,5,QRS,QRS Duration,87.8,msec,87.8,87.8,msec,,CHEST,SUPINE,12-LEAD ECG,TECHNICAL FAILURE,,NORMAL,SCREENING,1,2025-08-24,-14,PREDOSE,1
STUDY001,EG,STUDY001-SUBJ0022,6,HR,Heart Rate,79.3,beats/min,79.3,79.3,beats/min,Y,CHEST,SUPINE,12-LEAD ECG,,,NORMAL,BASELINE,2,2025-09-07,1,PREDOSE,1
STUDY001,EG,STUDY001-SUBJ0022,7,QT,QT Interval,417.1,msec,417.1,417.1,msec,Y,CHEST,SUPINE,12-LEAD ECG,,,NORMAL,BASELINE,2,2025-09-07,1,PREDOSE,1
STUDY001,EG,STUDY001-SUBJ0022,8,QTC,QTc Interval,409.8,msec,409.8,409.8,msec,Y,CHEST,SUPINE,12-LEAD ECG,,,NORMAL,BASELINE,2,2025-09-07,1,PREDOSE,1
STUDY001,EG,STUDY001-SUBJ0022,9,PR,PR Interval,145.2,msec,145.2,145.2,msec,Y,CHEST,SUPINE,12-LEAD ECG,,,NORMAL,BASELINE,2,2025-09-07,1,PREDOSE,1
STUDY001,EG,STUDY001-SUBJ0022,10,QRS,QRS Duration,86.8,msec,86.8,86.8,msec,Y,CHEST,SUPINE,12-LEAD ECG,,,NORMAL,BASELINE,2,2025-09-07,1,PREDOSE,1
STUDY001,EG,STUDY001-SUBJ0022,11,HR,Heart Rate,78.9,beats/min,78.9,78.9,beats/min,,CHEST,SUPINE,12-LEAD ECG,,,NORMAL,WEEK 4,3,2025-10-04,28,PREDOSE,1
STUDY001,EG,STUDY001-SUBJ0022,12,QT,QT Interval,418.5,msec,418.5,418.5,msec,,CHEST,SUPINE,12-LEAD ECG,,NOT DONE,NORMAL,WEEK 4,3,2025-10-04,28,PREDOSE,1
STUDY001,EG,STUDY001-SUBJ0022,13,QTC,QTc Interval,403.7,msec,403.7,403.7,msec,,CHEST,SUPINE,12-LEAD ECG,,,NORMAL,WEEK 4,3,2025-10-04,28,PREDOSE,1
STUDY001,EG,STUDY001-SUBJ0022,14,PR,PR Interval,140.3,msec,140.3,140.3,msec,,CHEST,SUPINE,12-LEAD ECG,,,NORMAL,WEEK 4,3,2025-10-04,28,PREDOSE,1
STUDY001,EG,STUDY001-SUBJ0022,15,QRS,QRS Duration,86.7,msec,86.7,86.7,msec,,CHEST,SUPINE,12-LEAD ECG,,,NORMAL,WEEK 4,3,2025-10-04,28,PREDOSE,1
STUDY001,EG,STUDY001-SUBJ0022,16,HR,Heart Rate,75.7,beats/min,75.7,75.7,beats/min,,CHEST,SUPINE,12-LEAD ECG,,,NORMAL,WEEK 12,4,2025-11-29,84,PREDOSE,1
STUDY001,EG,STUDY001-SUBJ0022,17,QT,QT Interval,416.0,msec,416.0,416.0,msec,,CHEST,SUPINE,12-LEAD ECG,,,NORMAL,WEEK 12,4,2025-11-29,84,PREDOSE,1
STUDY001,EG,STUDY001-SUBJ0022,18,QTC,QTc Interval,409.4,msec,409.4,409.4,msec,,CHEST,SUPINE,12-LEAD ECG,TECHNICAL FAILURE,,NORMAL,WEEK 12,4,2025-11-29,84,PREDOSE,1
STUDY001,EG,STUDY001-SUBJ0022,19,PR,PR Interval,142.2,msec,142.2,142.2,msec,,CHEST,SUPINE,12-LEAD ECG,,,NORMAL,WEEK 12,4,2025-11-29,84,PREDOSE,1
STUDY001,EG,STUDY001-SUBJ0022,20,QRS,QRS Duration,82.5,msec,82.5,82.5,msec,,CHEST,SUPINE,12-LEAD ECG,,,NORMAL,WEEK 12,4,2025-11-29,84,PREDOSE,1
STUDY001,EG,STUDY001-SUBJ0023,1,HR,Heart Rate,60.2,beats/min,60.2,60.2,beats/min,,CHEST,SUPINE,12-LEAD ECG,,,NORMAL,SCREENING,1,2025-06-04,-14,PREDOSE,1
STUDY001,EG,STUDY001-SUBJ0023,2,QT,QT Interval,372.5,msec,372.5,372.5,msec,,CHEST,SUPINE,12-LEAD ECG,,,NORMAL,SCREENING,1,2025-06-04,-14,PREDOSE,1
STUDY001,EG,STUDY001-SUBJ0023,3,QTC,QTc Interval,419.5,msec,419.5,419.5,msec,,CHEST,SUPINE,12-LEAD ECG,,,NORMAL,SCREENING,1,2025-06-04,-14,PREDOSE,1
STUDY001,EG,STUDY001-SUBJ0023,4,PR,PR Interval,169.5,msec,169.5,169.5,msec,,CHEST,SUPINE,12-LEAD ECG,TECHNICAL FAILURE,,NORMAL,SCREENING,1,2025-06-04,-14,PREDOSE,1
STUDY001,EG,STUDY001-SUBJ0023,5,QRS,QRS Duration,84.6,msec,84.6,84.6,msec,,CHEST,SUPINE,12-LEAD ECG,,,NORMAL,SCREENING,1,2025-06-04,-14,PREDOSE,1
STUDY001,EG,STUDY001-SUBJ0023,6,HR,Heart Rate,62.0,beats/min,62.0,62.0,beats/min,Y,CHEST,SUPINE,12-LEAD ECG,,,NORMAL,BASELINE,2,2025-06-18,1,PREDOSE,1
STUDY001,EG,STUDY001-SUBJ0023,7,QT,QT Interval,373.2,msec,373.2,373.2,msec,Y,CHEST,SUPINE,12-LEAD ECG,,,NORMAL,BASELINE,2,2025-06-18,1,PREDOSE,1
STUDY001,EG,STUDY001-SUBJ0023,8,QTC,QTc Interval,424.0,msec,424.0,424.0,msec,Y,CHEST,SUPINE,12-LEAD ECG,,,NORMAL,BASELINE,2,2025-06-18,1,PREDOSE,1
STUDY001,EG,STUDY001-SUBJ0023,9,PR,PR Interval,174.9,msec,174.9,174.9,msec,Y,CHEST,SUPINE,12-LEAD ECG,,,NORMAL,BASELINE,2,2025-06-18,1,PREDOSE,1
STUDY001,EG,STUDY001-SUBJ0023,10,QRS,QRS Duration,75.4,msec,75.4,75.4,msec,Y,CHEST,SUPINE,12-LEAD ECG,,,NORMAL,BASELINE,2,2025-06-18,1,PREDOSE,1
STUDY001,EG,STUDY001-SUBJ0023,11,HR,Heart Rate,60.9,beats/min,60.9,60.9,beats/min,,CHEST,SUPINE,12-LEAD ECG,,,NORMAL,WEEK 4,3,2025-07-15,28,PREDOSE,1
STUDY001,EG,STUDY001-SUBJ0023,12,QT,QT Interval,372.2,msec,372.2,372.2,msec,,CHEST,SUPINE,12-LEAD ECG,,,NORMAL,WEEK 4,3,2025-07-15,28,PREDOSE,1
STUDY001,EG,STUDY001-SUBJ0023,13,QTC,QTc Interval,426.2,msec,426.2,426.2,msec,,CHEST,SUPINE,12-LEAD ECG,,,NORMAL,WEEK 4,3,2025-07-15,28,PREDOSE,1
STUDY001,EG,STUDY001-SUBJ0023,14,PR,PR Interval,174.4,msec,174.4,174.4,msec,,CHEST,SUPINE,12-LEAD ECG,,,NORMAL,WEEK 4,3,2025-07-15,28,PREDOSE,1
STUDY001,EG,STUDY001-SUBJ0023,15,QRS,QRS Duration,76.5,msec,76.5,76.5,msec,,CHEST,SUPINE,12-LEAD ECG,,,NORMAL,WEEK 4,3,2025-07-15,28,PREDOSE,1
STUDY001,EG,STUDY001-SUBJ0023,16,HR,Heart Rate,65.0,beats/min,65.0,65.0,beats/min,,CHEST,SUPINE,12-LEAD ECG,,,NORMAL,WEEK 12,4,2025-09-09,84,PREDOSE,1
STUDY001,EG,STUDY001-SUBJ0023,17,QT,QT Interval,373.7,msec,373.7,373.7,msec,,CHEST,SUPINE,12-LEAD ECG,TECHNICAL FAILURE,,NORMAL,WEEK 12,4,2025-09-09,84,PREDOSE,1
STUDY001,EG,STUDY001-SUBJ0023,18,QTC,QTc Interval,424.2,msec,424.2,424.2,msec,,CHEST,SUPINE,12-LEAD ECG,,,NORMAL,WEEK 12,4,2025-09-09,84,PREDOSE,1
STUDY001,EG,STUDY001-SUBJ0023,19,PR,PR Interval,171.1,msec,171.1,171.1,msec,,CHEST,SUPINE,12-LEAD ECG,,,NORMAL,WEEK 12,4,2025-09-09,84,PREDOSE,1
STUDY001,EG,STUDY001-SUBJ0023,20,QRS,QRS Duration,75.9,msec,75.9,75.9,msec,,CHEST,SUPINE,12-LEAD ECG,,,NORMAL,WEEK 12,4,2025-09-09,84,PREDOSE,1
STUDY001,EG,STUDY001-SUBJ0023,21,HR,Heart Rate,64.3,beats/min,64.3,64.3,beats/min,,CHEST,SUPINE,12-LEAD ECG,,,NORMAL,END OF TREATMENT,5,2025-11-04,140,PREDOSE,1
STUDY001,EG,STUDY001-SUBJ0023,22,QT,QT Interval,372.0,msec,372.0,372.0,msec,,CHEST,SUPINE,12-LEAD ECG,,,NORMAL,END OF TREATMENT,5,2025-11-04,140,PREDOSE,1
STUDY001,EG,STUDY001-SUBJ0023,23,QTC,QTc Interval,427.6,msec,427.6,427.6,msec,,CHEST,SUPINE,12-LEAD ECG,,,NORMAL,END OF TREATMENT,5,2025-11-04,140,PREDOSE,1
STUDY001,EG,STUDY001-SUBJ0023,24,PR,PR Interval,165.3,msec,165.3,165.3,msec,,CHEST,SUPINE,12-LEAD ECG,TECHNICAL FAILURE,,NORMAL,END OF TREATMENT,5,2025-11-04,140,PREDOSE,1
STUDY001,EG,STUDY001-SUBJ0023,25,QRS,QRS Duration,84.3,msec,84.3,84.3,msec,,CHEST,SUPINE,12-LEAD ECG,,NOT DONE,NORMAL,END OF TREATMENT,5,2025-11-04,140,PREDOSE,1
STUDY001,EG,STUDY001-SUBJ0024,1,HR,Heart Rate,70.4,beats/min,70.4,70.4,beats/min,,CHEST,SUPINE,12-LEAD ECG,,,NORMAL,SCREENING,1,2025-03-08,-14,PREDOSE,1
STUDY001,EG,STUDY001-SUBJ0024,2,QT,QT Interval,411.4,msec,411.4,411.4,msec,,CHEST,SUPINE,12-LEAD ECG,,,NORMAL,SCREENING,1,2025-03-08,-14,PREDOSE,1
STUDY001,EG,STUDY001-SUBJ0024,3,QTC,QTc Interval,386.0,msec,386.0,386.0,msec,,CHEST,SUPINE,12-LEAD ECG,,,NORMAL,SCREENING,1,2025-03-08,-14,PREDOSE,1
STUDY001,EG,STUDY001-SUBJ0024,4,PR,PR Interval,166.0,msec,166.0,166.0,msec,,CHEST,SUPINE,12-LEAD ECG,,,NORMAL,SCREENING,1,2025-03-08,-14,PREDOSE,1
STUDY001,EG,STUDY001-SUBJ0024,5,QRS,QRS Duration,86.7,msec,86.7,86.7,msec,,CHEST,SUPINE,12-LEAD ECG,,,NORMAL,SCREENING,1,2025-03-08,-14,PREDOSE,1
STUDY001,EG,STUDY001-SUBJ0024,6,HR,Heart Rate,64.4,beats/min,64.4,64.4,beats/min,Y,CHEST,SUPINE,12-LEAD ECG,,,NORMAL,BASELINE,2,2025-03-22,1,PREDOSE,1
STUDY001,EG,STUDY001-SUBJ0024,7,QT,QT Interval,406.8,msec,406.8,406.8,msec,Y,CHEST,SUPINE,12-LEAD ECG,,,NORMAL,BASELINE,2,2025-03-22,1,PREDOSE,1
STUDY001,EG,STUDY001-SUBJ0024,8,QTC,QTc Interval,388.2,msec,388.2,388.2,msec,Y,CHEST,SUPINE,12-LEAD ECG,,,NORMAL,BASELINE,2,2025-03-22,1,PREDOSE,1
STUDY001,EG,STUDY001-SUBJ0024,9,PR,PR Interval,168.5,msec,168.5,168.5,msec,Y,CHEST,SUPINE,12-LEAD ECG,,,NORMAL,BASELINE,2,2025-03-22,1,PREDOSE,1
STUDY001,EG,STUDY001-SUBJ0024,10,QRS,QRS Duration,83.6,msec,83.6,83.6,msec,Y,CHEST,SUPINE,12-LEAD ECG,,,NORMAL,BASELINE,2,2025-03-22,1,PREDOSE,1
STUDY001,EG,STUDY001-SUBJ0024,11,HR,Heart Rate,67.6,beats/min,67.6,67.6,beats/min,,CHEST,SUPINE,12-LEAD ECG,,,NORMAL,WEEK 4,3,2025-04-18,28,PREDOSE,1
STUDY001,EG,STUDY001-SUBJ0024,12,QT,QT Interval,413.4,msec,413.4,413.4,msec,,CHEST,SUPINE,12-LEAD ECG,,,NORMAL,WEEK 4,3,2025-04-18,28,PREDOSE,1
STUDY001,EG,STUDY001-SUBJ0024,13,QTC,QTc Interval,392.3,msec,392.3,392.3,msec,,CHEST,SUPINE,12-LEAD ECG,,,NORMAL,WEEK 4,3,2025-04-18,28,PREDOSE,1
STUDY001,EG,STUDY001-SUBJ0024,14,PR,PR Interval,166.2,msec,166.2,166.2,msec,,CHEST,SUPINE,12-LEAD ECG,,,NORMAL,WEEK 4,3,2025-04-18,28,PREDOSE,1
STUDY001,EG,STUDY001-SUBJ0024,15,QRS,QRS Duration,84.4,msec,84.4,84.4,msec,,CHEST,SUPINE,12-LEAD ECG,,,NORMAL,WEEK 4,3,2025-04-18,28,PREDOSE,1
STUDY001,EG,STUDY001-SUBJ0024,16,HR,Heart Rate,68.9,beats/min,68.9,68.9,beats/min,,CHEST,SUPINE,12-LEAD ECG,,,NORMAL,WEEK 12,4,2025-06-13,84,PREDOSE,1
STUDY001,EG,STUDY001-SUBJ0024,17,QT,QT Interval,410.6,msec,410.6,410.6,msec,,CHEST,SUPINE,12-LEAD ECG,,,NORMAL,WEEK 12,4,2025-06-13,84,PREDOSE,1
STUDY001,EG,STUDY001-SUBJ0024,18,QTC,QTc Interval,389.3,msec,389.3,389.3,msec,,CHEST,SUPINE,12-LEAD ECG,,,NORMAL,WEEK 12,4,2025-06-13,84,PREDOSE,1
STUDY001,EG,STUDY001-SUBJ0024,19,PR,PR Interval,166.7,msec,166.7,166.7,msec,,CHEST,SUPINE,12-LEAD ECG,TECHNICAL FAILURE,,NORMAL,WEEK 12,4,2025-06-13,84,PREDOSE,1
STUDY001,EG,STUDY001-SUBJ0024,20,QRS,QRS Duration,84.9,msec,84.9,84.9,msec,,CHEST,SUPINE,12-LEAD ECG,,,NORMAL,WEEK 12,4,2025-06-13,84,PREDOSE,1
STUDY001,EG,STUDY001-SUBJ0024,21,HR,Heart Rate,67.5,beats/min,67.5,67.5,beats/min,,CHEST,SUPINE,12-LEAD ECG,,,NORMAL,END OF TREATMENT,5,2025-08-08,140,PREDOSE,1
STUDY001,EG,STUDY001-SUBJ0024,22,QT,QT Interval,409.9,msec,409.9,409.9,msec,,CHEST,SUPINE,12-LEAD ECG,,,NORMAL,END OF TREATMENT,5,2025-08-08,140,PREDOSE,1
STUDY001,EG,STUDY001-SUBJ0024,23,QTC,QTc Interval,394.6,msec,394.6,394.6,msec,,CHEST,SUPINE,12-LEAD ECG,,,NORMAL,END OF TREATMENT,5,2025-08-08,140,PREDOSE,1
STUDY001,EG,STUDY001-SUBJ0024,24,PR,PR Interval,169.3,msec,169.3,169.3,msec,,CHEST,SUPINE,12-LEAD ECG,,,NORMAL,END OF TREATMENT,5,2025-08-08,140,PREDOSE,1
STUDY001,EG,STUDY001-SUBJ0024,25,QRS,QRS Duration,87.6,msec,87.6,87.6,msec,,CHEST,SUPINE,12-LEAD ECG,,,NORMAL,END OF TREATMENT,5,2025-08-08,140,PREDOSE,1
STUDY001,EG,STUDY001-SUBJ0025,1,HR,Heart Rate,69.5,beats/min,69.5,69.5,beats/min,,CHEST,SUPINE,12-LEAD ECG,,,NORMAL,SCREENING,1,2025-09-19,-14,PREDOSE,1
STUDY001,EG,STUDY001-SUBJ0025,2,QT,QT Interval,399.7,msec,399.7,399.7,msec,,CHEST,SUPINE,12-LEAD ECG,,,NORMAL,SCREENING,1,2025-09-19,-14,PREDOSE,1
STUDY001,EG,STUDY001-SUBJ0025,3,QTC,QTc Interval,407.9,msec,407.9,407.9,msec,,CHEST,SUPINE,12-LEAD ECG,,,NORMAL,SCREENING,1,2025-09-19,-14,PREDOSE,1
STUDY001,EG,STUDY001-SUBJ0025,4,PR,PR Interval,156.1,msec,156.1,156.1,msec,,CHEST,SUPINE,12-LEAD ECG,,,NORMAL,SCREENING,1,2025-09-19,-14,PREDOSE,1
STUDY001,EG,STUDY001-SUBJ0025,5,QRS,QRS Duration,85.3,msec,85.3,85.3,msec,,CHEST,SUPINE,12-LEAD ECG,,,NORMAL,SCREENING,1,2025-09-19,-14,PREDOSE,1
STUDY001,EG,STUDY001-SUBJ0025,6,HR,Heart Rate,71.2,beats/min,71.2,71.2,beats/min,Y,CHEST,SUPINE,12-LEAD ECG,,,NORMAL,BASELINE,2,2025-10-03,1,PREDOSE,1
STUDY001,EG,STUDY001-SUBJ0025,7,QT,QT Interval,402.9,msec,402.9,402.9,msec,Y,CHEST,SUPINE,12-LEAD ECG,,,NORMAL,BASELINE,2,2025-10-03,1,PREDOSE,1
STUDY001,EG,STUDY001-SUBJ0025,8,QTC,QTc Interval,410.1,msec,410.1,410.1,msec,Y,CHEST,SUPINE,12-LEAD ECG,,,NORMAL,BASELINE,2,2025-10-03,1,PREDOSE,1
STUDY001,EG,STUDY001-SUBJ0025,9,PR,PR Interval,153.9,msec,153.9,153.9,msec,Y,CHEST,SUPINE,12-LEAD ECG,,,NORMAL,BASELINE,2,2025-10-03,1,PREDOSE,1
STUDY001,EG,STUDY001-SUBJ0025,10,QRS,QRS Duration,89.1,msec,89.1,89.1,msec,Y,CHEST,SUPINE,12-LEAD ECG,TECHNICAL FAILURE,,NORMAL,BASELINE,2,2025-10-03,1,PREDOSE,1
STUDY001,EG,STUDY001-SUBJ0025,11,HR,Heart Rate,73.3,beats/min,73.3,73.3,beats/min,,CHEST,SUPINE,12-LEAD ECG,,,NORMAL,WEEK 4,3,2025-10-30,28,PREDOSE,1
STUDY001,EG,STUDY001-SUBJ0025,12,QT,QT Interval,400.9,msec,400.9,400.9,msec,,CHEST,SUPINE,12-LEAD ECG,,,NORMAL,WEEK 4,3,2025-10-30,28,PREDOSE,1
STUDY001,EG,STUDY001-SUBJ0025,13,QTC,QTc Interval,411.8,msec,411.8,411.8,msec,,CHEST,SUPINE,12-LEAD ECG,,,NORMAL,WEEK 4,3,2025-10-30,28,PREDOSE,1
STUDY001,EG,STUDY001-SUBJ0025,14,PR,PR Interval,159.5,msec,159.5,159.5,msec,,CHEST,SUPINE,12-LEAD ECG,,,NORMAL,WEEK 4,3,2025-10-30,28,PREDOSE,1
STUDY001,EG,STUDY001-SUBJ0025,15,QRS,QRS Duration,89.2,msec,89.2,89.2,msec,,CHEST,SUPINE,12-LEAD ECG,,,NORMAL,WEEK 4,3,2025-10-30,28,PREDOSE,1
STUDY001,EG,STUDY001-SUBJ0026,1,HR,Heart Rate,71.6,beats/min,71.6,71.6,beats/min,,CHEST,SUPINE,12-LEAD ECG,,,NORMAL,SCREENING,1,2025-07-27,-14,PREDOSE,1
STUDY001,EG,STUDY001-SUBJ0026,2,QT,QT Interval,375.5,msec,375.5,375.5,msec,,CHEST,SUPINE,12-LEAD ECG,,,NORMAL,SCREENING,1,2025-07-27,-14,PREDOSE,1
STUDY001,EG,STUDY001-SUBJ0026,3,QTC,QTc Interval,386.1,msec,386.1,386.1,msec,,CHEST,SUPINE,12-LEAD ECG,,,NORMAL,SCREENING,1,2025-07-27,-14,PREDOSE,1
STUDY001,EG,STUDY001-SUBJ0026,4,PR,PR Interval,174.2,msec,174.2,174.2,msec,,CHEST,SUPINE,12-LEAD ECG,,,NORMAL,SCREENING,1,2025-07-27,-14,PREDOSE,1
STUDY001,EG,STUDY001-SUBJ0026,5,QRS,QRS Duration,101.0,msec,101.0,101.0,msec,,CHEST,SUPINE,12-LEAD ECG,,,NORMAL,SCREENING,1,2025-07-27,-14,PREDOSE,1
STUDY001,EG,STUDY001-SUBJ0026,6,HR,Heart Rate,72.1,beats/min,72.1,72.1,beats/min,Y,CHEST,SUPINE,12-LEAD ECG,,,NORMAL,BASELINE,2,2025-08-10,1,PREDOSE,1
STUDY001,EG,STUDY001-SUBJ0026,7,QT,QT Interval,381.4,msec,381.4,381.4,msec,Y,CHEST,SUPINE,12-LEAD ECG,,,NORMAL,BASELINE,2,2025-08-10,1,PREDOSE,1
STUDY001,EG,STUDY001-SUBJ0026,8,QTC,QTc Interval,386.4,msec,386.4,386.4,msec,Y,CHEST,SUPINE,12-LEAD ECG,,,NORMAL,BASELINE,2,2025-08-10,1,PREDOSE,1
STUDY001,EG,STUDY001-SUBJ0026,9,PR,PR Interval,173.8,msec,173.8,173.8,msec,Y,CHEST,SUPINE,12-LEAD ECG,,,NORMAL,BASELINE,2,2025-08-10,1,PREDOSE,1
STUDY001,EG,STUDY001-SUBJ0026,10,QRS,QRS Duration,99.8,msec,99.8,99.8,msec,Y,CHEST,SUPINE,12-LEAD ECG,,,NORMAL,BASELINE,2,2025-08-10,1,PREDOSE,1
STUDY001,EG,STUDY001-SUBJ0026,11,HR,Heart Rate,68.8,beats/min,68.8,68.8,beats/min,,CHEST,SUPINE,12-LEAD ECG,,,NORMAL,WEEK 4,3,2025-09-06,28,PREDOSE,1
STUDY001,EG,STUDY001-SUBJ0026,12,QT,QT Interval,379.4,msec,379.4,379.4,msec,,CHEST,SUPINE,12-LEAD ECG,,,NORMAL,WEEK 4,3,2025-09-06,28,PREDOSE,1
STUDY001,EG,STUDY001-SUBJ0026,13,QTC,QTc Interval,388.7,msec,388.7,388.7,msec,,CHEST,SUPINE,12-LEAD ECG,,NOT DONE,NORMAL,WEEK 4,3,2025-09-06,28,PREDOSE,1
STUDY001,EG,STUDY001-SUBJ0026,14,PR,PR Interval,173.7,msec,173.7,173.7,msec,,CHEST,SUPINE,12-LEAD ECG,,,NORMAL,WEEK 4,3,2025-09-06,28,PREDOSE,1
STUDY001,EG,STUDY001-SUBJ0026,15,QRS,QRS Duration,99.6,msec,99.6,99.6,msec,,CHEST,SUPINE,12-LEAD ECG,,,NORMAL,WEEK 4,3,2025-09-06,28,PREDOSE,1
STUDY001,EG,STUDY001-SUBJ0026,16,HR,Heart Rate,76.8,beats/min,76.8,76.8,beats/min,,CHEST,SUPINE,12-LEAD ECG,,,NORMAL,WEEK 12,4,2025-11-01,84,PREDOSE,1
STUDY001,EG,STUDY001-SUBJ0026,17,QT,QT Interval,381.8,msec,381.8,381.8,msec,,CHEST,SUPINE,12-LEAD ECG,,,NORMAL,WEEK 12,4,2025-11-01,84,PREDOSE,1
STUDY001,EG,STUDY001-SUBJ0026,18,QTC,QTc Interval,387.3,msec,387.3,387.3,msec,,CHEST,SUPINE,12-LEAD ECG,,,NORMAL,WEEK 12,4,2025-11-01,84,PREDOSE,1
STUDY001,EG,STUDY001-SUBJ0026,19,PR,PR Interval,170.3,msec,170.3,170.3,msec,,CHEST,SUPINE,12-LEAD ECG,,,NORMAL,WEEK 12,4,2025-11-01,84,PREDOSE,1
STUDY001,EG,STUDY001-SUBJ0026,20,QRS,QRS Duration,96.9,msec,96.9,96.9,msec,,CHEST,SUPINE,12-LEAD ECG,,,NORMAL,WEEK 12,4,2025-11-01,84,PREDOSE,1
STUDY001,EG,STUDY001-SUBJ0026,21,HR,Heart Rate,71.9,beats/min,71.9,71.9,beats/min,,CHEST,SUPINE,12-LEAD ECG,,,NORMAL,END OF TREATMENT,5,2025-12-27,140,PREDOSE,1
STUDY001,EG,STUDY001-SUBJ0026,22,QT,QT Interval,381.0,msec,381.0,381.0,msec,,CHEST,SUPINE,12-LEAD ECG,,NOT DONE,NORMAL,END OF TREATMENT,5,2025-12-27,140,PREDOSE,1
STUDY001,EG,STUDY001-SUBJ0026,23,QTC,QTc Interval,386.8,msec,386.8,386.8,msec,,CHEST,SUPINE,12-LEAD ECG,,NOT DONE,NORMAL,END OF TREATMENT,5,2025-12-27,140,PREDOSE,1
STUDY001,EG,STUDY001-SUBJ0026,24,PR,PR Interval,168.6,msec,168.6,168.6,msec,,CHEST,SUPINE,12-LEAD ECG,,,NORMAL,END OF TREATMENT,5,2025-12-27,140,PREDOSE,1
STUDY001,EG,STUDY001-SUBJ0026,25,QRS,QRS Duration,99.8,msec,99.8,99.8,msec,,CHEST,SUPINE,12-LEAD ECG,TECHNICAL FAILURE,,NORMAL,END OF TREATMENT,5,2025-12-27,140,PREDOSE,1
STUDY001,EG,STUDY001-SUBJ0027,1,HR,Heart Rate,61.7,beats/min,61.7,61.7,beats/min,,CHEST,SUPINE,12-LEAD ECG,,,NORMAL,SCREENING,1,2025-06-26,-14,PREDOSE,1
STUDY001,EG,STUDY001-SUBJ0027,2,QT,QT Interval,407.0,msec,407.0,407.0,msec,,CHEST,SUPINE,12-LEAD ECG,,,NORMAL,SCREENING,1,2025-06-26,-14,PREDOSE,1
STUDY001,EG,STUDY001-SUBJ0027,3,QTC,QTc Interval,389.4,msec,389.4,389.4,msec,,CHEST,SUPINE,12-LEAD ECG,,,NORMAL,SCREENING,1,2025-06-26,-14,PREDOSE,1
STUDY001,EG,STUDY001-SUBJ0027,4,PR,PR Interval,170.9,msec,170.9,170.9,msec,,CHEST,SUPINE,12-LEAD ECG,,,NORMAL,SCREENING,1,2025-06-26,-14,PREDOSE,1
STUDY001,EG,STUDY001-SUBJ0027,5,QRS,QRS Duration,89.2,msec,89.2,89.2,msec,,CHEST,SUPINE,12-LEAD ECG,,,NORMAL,SCREENING,1,2025-06-26,-14,PREDOSE,1
STUDY001,EG,STUDY001-SUBJ0027,6,HR,Heart Rate,62.3,beats/min,62.3,62.3,beats/min,Y,CHEST,SUPINE,12-LEAD ECG,,,NORMAL,BASELINE,2,2025-07-10,1,PREDOSE,1
STUDY001,EG,STUDY001-SUBJ0027,7,QT,QT Interval,406.0,msec,406.0,406.0,msec,Y,CHEST,SUPINE,12-LEAD ECG,,,NORMAL,BASELINE,2,2025-07-10,1,PREDOSE,1
STUDY001,EG,STUDY001-SUBJ0027,8,QTC,QTc Interval,386.0,msec,386.0,386.0,msec,Y,CHEST,SUPINE,12-LEAD ECG,,,NORMAL,BASELINE,2,2025-07-10,1,PREDOSE,1
STUDY001,EG,STUDY001-SUBJ0027,9,PR,PR Interval,169.9,msec,169.9,169.9,msec,Y,CHEST,SUPINE,12-LEAD ECG,,,NORMAL,BASELINE,2,2025-07-10,1,PREDOSE,1
STUDY001,EG,STUDY001-SUBJ0027,10,QRS,QRS Duration,97.7,msec,97.7,97.7,msec,Y,CHEST,SUPINE,12-LEAD ECG,,,NORMAL,BASELINE,2,2025-07-10,1,PREDOSE,1
STUDY001,EG,STUDY001-SUBJ0027,11,HR,Heart Rate,66.3,beats/min,66.3,66.3,beats/min,,CHEST,SUPINE,12-LEAD ECG,,,NORMAL,WEEK 4,3,2025-08-06,28,PREDOSE,1
STUDY001,EG,STUDY001-SUBJ0027,12,QT,QT Interval,401.6,msec,401.6,401.6,msec,,CHEST,SUPINE,12-LEAD ECG,TECHNICAL FAILURE,,NORMAL,WEEK 4,3,2025-08-06,28,PREDOSE,1
STUDY001,EG,STUDY001-SUBJ0027,13,QTC,QTc Interval,387.8,msec,387.8,387.8,msec,,CHEST,SUPINE,12-LEAD ECG,,,NORMAL,WEEK 4,3,2025-08-06,28,PREDOSE,1
STUDY001,EG,STUDY001-SUBJ0027,14,PR,PR Interval,174.9,msec,174.9,174.9,msec,,CHEST,SUPINE,12-LEAD ECG,,,NORMAL,WEEK 4,3,2025-08-06,28,PREDOSE,1
STUDY001,EG,STUDY001-SUBJ0027,15,QRS,QRS Duration,94.1,msec,94.1,94.1,msec,,CHEST,SUPINE,12-LEAD ECG,,,NORMAL,WEEK 4,3,2025-08-06,28,PREDOSE,1
STUDY001,EG,STUDY001-SUBJ0027,16,HR,Heart Rate,61.1,beats/min,61.1,61.1,beats/min,,CHEST,SUPINE,12-LEAD ECG,,,NORMAL,WEEK 12,4,2025-10-01,84,PREDOSE,1
STUDY001,EG,STUDY001-SUBJ0027,17,QT,QT Interval,408.0,msec,408.0,408.0,msec,,CHEST,SUPINE,12-LEAD ECG,,,NORMAL,WEEK 12,4,2025-10-01,84,PREDOSE,1
STUDY001,EG,STUDY001-SUBJ0027,18,QTC,QTc Interval,386.1,msec,386.1,386.1,msec,,CHEST,SUPINE,12-LEAD ECG,,,NORMAL,WEEK 12,4,2025-10-01,84,PREDOSE,1
STUDY001,EG,STUDY001-SUBJ0027,19,PR,PR Interval,173.6,msec,173.6,173.6,msec,,CHEST,SUPINE,12-LEAD ECG,,,NORMAL,WEEK 12,4,2025-10-01,84,PREDOSE,1
STUDY001,EG,STUDY001-SUBJ0027,20,QRS,QRS Duration,96.8,msec,96.8,96.8,msec,,CHEST,SUPINE,12-LEAD ECG,,,NORMAL,WEEK 12,4,2025-10-01,84,PREDOSE,1
STUDY001,EG,STUDY001-SUBJ0027,21,HR,Heart Rate,60.0,beats/min,60.0,60.0,beats/min,,CHEST,SUPINE,12-LEAD ECG,,,NORMAL,END OF TREATMENT,5,2025-11-26,140,PREDOSE,1
STUDY001,EG,STUDY001-SUBJ0027,22,QT,QT Interval,401.2,msec,401.2,401.2,msec,,CHEST,SUPINE,12-LEAD ECG,,,NORMAL,END OF TREATMENT,5,2025-11-26,140,PREDOSE,1
STUDY001,EG,STUDY001-SUBJ0027,23,QTC,QTc Interval,387.2,msec,387.2,387.2,msec,,CHEST,SUPINE,12-LEAD ECG,,,NORMAL,END OF TREATMENT,5,2025-11-26,140,PREDOSE,1
STUDY001,EG,STUDY001-SUBJ0027,24,PR,PR Interval,177.6,msec,177.6,177.6,msec,,CHEST,SUPINE,12-LEAD ECG,,,NORMAL,END OF TREATMENT,5,2025-11-26,140,PREDOSE,1
STUDY001,EG,STUDY001-SUBJ0027,25,QRS,QRS Duration,97.5,msec,97.5,97.5,msec,,CHEST,SUPINE,12-LEAD ECG,,,NORMAL,END OF TREATMENT,5,2025-11-26,140,PREDOSE,1
STUDY001,EG,STUDY001-SUBJ0028,1,HR,Heart Rate,69.6,beats/min,69.6,69.6,beats/min,,CHEST,SUPINE,12-LEAD ECG,,,NORMAL,SCREENING,1,2025-11-03,-14,PREDOSE,1
STUDY001,EG,STUDY001-SUBJ0028,2,QT,QT Interval,404.3,msec,404.3,404.3,msec,,CHEST,SUPINE,12-LEAD ECG,,,NORMAL,SCREENING,1,2025-11-03,-14,PREDOSE,1
STUDY001,EG,STUDY001-SUBJ0028,3,QTC,QTc Interval,435.7,msec,435.7,435.7,msec,,CHEST,SUPINE,12-LEAD ECG,,,NORMAL,SCREENING,1,2025-11-03,-14,PREDOSE,1
STUDY001,EG,STUDY001-SUBJ0028,4,PR,PR Interval,152.8,msec,152.8,152.8,msec,,CHEST,SUPINE,12-LEAD ECG,,,NORMAL,SCREENING,1,2025-11-03,-14,PREDOSE,1
STUDY001,EG,STUDY001-SUBJ0028,5,QRS,QRS Duration,85.2,msec,85.2,85.2,msec,,CHEST,SUPINE,12-LEAD ECG,,NOT DONE,NORMAL,SCREENING,1,2025-11-03,-14,PREDOSE,1
STUDY001,EG,STUDY001-SUBJ0028,6,HR,Heart Rate,67.8,beats/min,67.8,67.8,beats/min,Y,CHEST,SUPINE,12-LEAD ECG,,,NORMAL,BASELINE,2,2025-11-17,1,PREDOSE,1
STUDY001,EG,STUDY001-SUBJ0028,7,QT,QT Interval,411.9,msec,411.9,411.9,msec,Y,CHEST,SUPINE,12-LEAD ECG,,,NORMAL,BASELINE,2,2025-11-17,1,PREDOSE,1
STUDY001,EG,STUDY001-SUBJ0028,8,QTC,QTc Interval,435.8,msec,435.8,435.8,msec,Y,CHEST,SUPINE,12-LEAD ECG,,,NORMAL,BASELINE,2,2025-11-17,1,PREDOSE,1
STUDY001,EG,STUDY001-SUBJ0028,9,PR,PR Interval,151.7,msec,151.7,151.7,msec,Y,CHEST,SUPINE,12-LEAD ECG,,,NORMAL,BASELINE,2,2025-11-17,1,PREDOSE,1
STUDY001,EG,STUDY001-SUBJ0028,10,QRS,QRS Duration,80.6,msec,80.6,80.6,msec,Y,CHEST,SUPINE,12-LEAD ECG,,,NORMAL,BASELINE,2,2025-11-17,1,PREDOSE,1
STUDY001,EG,STUDY001-SUBJ0029,1,HR,Heart Rate,80.9,beats/min,80.9,80.9,beats/min,,CHEST,SUPINE,12-LEAD ECG,,,NORMAL,SCREENING,1,2024-12-26,-14,PREDOSE,1
STUDY001,EG,STUDY001-SUBJ0029,2,QT,QT Interval,398.6,msec,398.6,398.6,msec,,CHEST,SUPINE,12-LEAD ECG,,NOT DONE,NORMAL,SCREENING,1,2024-12-26,-14,PREDOSE,1
STUDY001,EG,STUDY001-SUBJ0029,3,QTC,QTc Interval,396.1,msec,396.1,396.1,msec,,CHEST,SUPINE,12-LEAD ECG,,,NORMAL,SCREENING,1,2024-12-26,-14,PREDOSE,1
STUDY001,EG,STUDY001-SUBJ0029,4,PR,PR Interval,177.4,msec,177.4,177.4,msec,,CHEST,SUPINE,12-LEAD ECG,,,NORMAL,SCREENING,1,2024-12-26,-14,PREDOSE,1
STUDY001,EG,STUDY001-SUBJ0029,5,QRS,QRS Duration,92.1,msec,92.1,92.1,msec,,CHEST,SUPINE,12-LEAD ECG,,,NORMAL,SCREENING,1,2024-12-26,-14,PREDOSE,1
STUDY001,EG,STUDY001-SUBJ0029,6,HR,Heart Rate,79.4,beats/min,79.4,79.4,beats/min,Y,CHEST,SUPINE,12-LEAD ECG,,,NORMAL,BASELINE,2,2025-01-09,1,PREDOSE,1
STUDY001,EG,STUDY001-SUBJ0029,7,QT,QT Interval,399.2,msec,399.2,399.2,msec,Y,CHEST,SUPINE,12-LEAD ECG,,,NORMAL,BASELINE,2,2025-01-09,1,PREDOSE,1
STUDY001,EG,STUDY001-SUBJ0029,8,QTC,QTc Interval,395.4,msec,395.4,395.4,msec,Y,CHEST,SUPINE,12-LEAD ECG,,,NORMAL,BASELINE,2,2025-01-09,1,PREDOSE,1
STUDY001,EG,STUDY001-SUBJ0029,9,PR,PR Interval,183.1,msec,183.1,183.1,msec,Y,CHEST,SUPINE,12-LEAD ECG,,,NORMAL,BASELINE,2,2025-01-09,1,PREDOSE,1
STUDY001,EG,STUDY001-SUBJ0029,10,QRS,QRS Duration,95.8,msec,95.8,95.8,msec,Y,CHEST,SUPINE,12-LEAD ECG,,,NORMAL,BASELINE,2,2025-01-09,1,PREDOSE,1
STUDY001,EG,STUDY001-SUBJ0029,11,HR,Heart Rate,78.0,beats/min,78.0,78.0,beats/min,,CHEST,SUPINE,12-LEAD ECG,,,NORMAL,WEEK 4,3,2025-02-05,28,PREDOSE,1
STUDY001,EG,STUDY001-SUBJ0029,12,QT,QT Interval,395.4,msec,395.4,395.4,msec,,CHEST,SUPINE,12-LEAD ECG,,,NORMAL,WEEK 4,3,2025-02-05,28,PREDOSE,1
STUDY001,EG,STUDY001-SUBJ0029,13,QTC,QTc Interval,400.5,msec,400.5,400.5,msec,,CHEST,SUPINE,12-LEAD ECG,,,NORMAL,WEEK 4,3,2025-02-05,28,PREDOSE,1
STUDY001,EG,STUDY001-SUBJ0029,14,PR,PR Interval,183.2,msec,183.2,183.2,msec,,CHEST,SUPINE,12-LEAD ECG,,,NORMAL,WEEK 4,3,2025-02-05,28,PREDOSE,1
STUDY001,EG,STUDY001-SUBJ0029,15,QRS,QRS Duration,88.0,msec,88.0,88.0,msec,,CHEST,SUPINE,12-LEAD ECG,,,NORMAL,WEEK 4,3,2025-02-05,28,PREDOSE,1
STUDY001,EG,STUDY001-SUBJ0029,16,HR,Heart Rate,81.7,beats/min,81.7,81.7,beats/min,,CHEST,SUPINE,12-LEAD ECG,,,NORMAL,WEEK 12,4,2025-04-02,84,PREDOSE,1
STUDY001,EG,STUDY001-SUBJ0029,17,QT,QT Interval,398.9,msec,398.9,398.9,msec,,CHEST,SUPINE,12-LEAD ECG,,,NORMAL,WEEK 12,4,2025-04-02,84,PREDOSE,1
STUDY001,EG,STUDY001-SUBJ0029,18,QTC,QTc Interval,395.8,msec,395.8,395.8,msec,,CHEST,SUPINE,12-LEAD ECG,,,NORMAL,WEEK 12,4,2025-04-02,84,PREDOSE,1
STUDY001,EG,STUDY001-SUBJ0029,19,PR,PR Interval,175.3,msec,175.3,175.3,msec,,CHEST,SUPINE,12-LEAD ECG,,,NORMAL,WEEK 12,4,2025-04-02,84,PREDOSE,1
STUDY001,EG,STUDY001-SUBJ0029,20,QRS,QRS Duration,90.0,msec,90.0,90.0,msec,,CHEST,SUPINE,12-LEAD ECG,,,NORMAL,WEEK 12,4,2025-04-02,84,PREDOSE,1
STUDY001,EG,STUDY001-SUBJ0029,21,HR,Heart Rate,79.0,beats/min,79.0,79.0,beats/min,,CHEST,SUPINE,12-LEAD ECG,,,NORMAL,END OF TREATMENT,5,2025-05-28,140,PREDOSE,1
STUDY001,EG,STUDY001-SUBJ0029,22,QT,QT Interval,396.5,msec,396.5,396.5,msec,,CHEST,SUPINE,12-LEAD ECG,,,NORMAL,END OF TREATMENT,5,2025-05-28,140,PREDOSE,1
STUDY001,EG,STUDY001-SUBJ0029,23,QTC,QTc Interval,396.7,msec,396.7,396.7,msec,,CHEST,SUPINE,12-LEAD ECG,,,NORMAL,END OF TREATMENT,5,2025-05-28,140,PREDOSE,1
STUDY001,EG,STUDY001-SUBJ0029,24,PR,PR Interval,183.4,msec,183.4,183.4,msec,,CHEST,SUPINE,12-LEAD ECG,,,NORMAL,END OF TREATMENT,5,2025-05-28,140,PREDOSE,1
STUDY001,EG,STUDY001-SUBJ0029,25,QRS,QRS Duration,88.7,msec,88.7,88.7,msec,,CHEST,SUPINE,12-LEAD ECG,,,NORMAL,END OF TREATMENT,5,2025-05-28,140,PREDOSE,1
STUDY001,EG,STUDY001-SUBJ0030,1,HR,Heart Rate,66.4,beats/min,66.4,66.4,beats/min,,CHEST,SUPINE,12-LEAD ECG,,,NORMAL,SCREENING,1,2025-01-12,-14,PREDOSE,1
STUDY001,EG,STUDY001-SUBJ0030,2,QT,QT Interval,421.4,msec,421.4,421.4,msec,,CHEST,SUPINE,12-LEAD ECG,,,NORMAL,SCREENING,1,2025-01-12,-14,PREDOSE,1
STUDY001,EG,STUDY001-SUBJ0030,3,QTC,QTc Interval,410.3,msec,410.3,410.3,msec,,CHEST,SUPINE,12-LEAD ECG,,,NORMAL,SCREENING,1,2025-01-12,-14,PREDOSE,1
STUDY001,EG,STUDY001-SUBJ0030,4,PR,PR Interval,168.1,msec,168.1,168.1,msec,,CHEST,SUPINE,12-LEAD ECG,,,NORMAL,SCREENING,1,2025-01-12,-14,PREDOSE,1
STUDY001,EG,STUDY001-SUBJ0030,5,QRS,QRS Duration,81.6,msec,81.6,81.6,msec,,CHEST,SUPINE,12-LEAD ECG,,,NORMAL,SCREENING,1,2025-01-12,-14,PREDOSE,1
STUDY001,EG,STUDY001-SUBJ0030,6,HR,Heart Rate,67.8,beats/min,67.8,67.8,beats/min,Y,CHEST,SUPINE,12-LEAD ECG,,,NORMAL,BASELINE,2,2025-01-26,1,PREDOSE,1
STUDY001,EG,STUDY001-SUBJ0030,7,QT,QT Interval,420.8,msec,420.8,420.8,msec,Y,CHEST,SUPINE,12-LEAD ECG,,,NORMAL,BASELINE,2,2025-01-26,1,PREDOSE,1
STUDY001,EG,STUDY001-SUBJ0030,8,QTC,QTc Interval,407.7,msec,407.7,407.7,msec,Y,CHEST,SUPINE,12-LEAD ECG,,,NORMAL,BASELINE,2,2025-01-26,1,PREDOSE,1
STUDY001,EG,STUDY001-SUBJ0030,9,PR,PR Interval,171.5,msec,171.5,171.5,msec,Y,CHEST,SUPINE,12-LEAD ECG,,,NORMAL,BASELINE,2,2025-01-26,1,PREDOSE,1
STUDY001,EG,STUDY001-SUBJ0030,10,QRS,QRS Duration,79.4,msec,79.4,79.4,msec,Y,CHEST,SUPINE,12-LEAD ECG,,,NORMAL,BASELINE,2,2025-01-26,1,PREDOSE,1
STUDY001,EG,STUDY001-SUBJ0030,11,HR,Heart Rate,66.1,beats/min,66.1,66.1,beats/min,,CHEST,SUPINE,12-LEAD ECG,,,NORMAL,WEEK 4,3,2025-02-22,28,PREDOSE,1
STUDY001,EG,STUDY001-SUBJ0030,12,QT,QT Interval,421.9,msec,421.9,421.9,msec,,CHEST,SUPINE,12-LEAD ECG,,,NORMAL,WEEK 4,3,2025-02-22,28,PREDOSE,1
STUDY001,EG,STUDY001-SUBJ0030,13,QTC,QTc Interval,414.3,msec,414.3,414.3,msec,,CHEST,SUPINE,12-LEAD ECG,,,NORMAL,WEEK 4,3,2025-02-22,28,PREDOSE,1
STUDY001,EG,STUDY001-SUBJ0030,14,PR,PR Interval,164.5,msec,164.5,164.5,msec,,CHEST,SUPINE,12-LEAD ECG,,,NORMAL,WEEK 4,3,2025-02-22,28,PREDOSE,1
STUDY001,EG,STUDY001-SUBJ0030,15,QRS,QRS Duration,82.4,msec,82.4,82.4,msec,,CHEST,SUPINE,12-LEAD ECG,,,NORMAL,WEEK 4,3,2025-02-22,28,PREDOSE,1
STUDY001,EG,STUDY001-SUBJ0030,16,HR,Heart Rate,62.3,beats/min,62.3,62.3,beats/min,,CHEST,SUPINE,12-LEAD ECG,,,NORMAL,WEEK 12,4,2025-04-19,84,PREDOSE,1
STUDY001,EG,STUDY001-SUBJ0030,17,QT,QT Interval,417.9,msec,417.9,417.9,msec,,CHEST,SUPINE,12-LEAD ECG,,,NORMAL,WEEK 12,4,2025-04-19,84,PREDOSE,1
STUDY001,EG,STUDY001-SUBJ0030,18,QTC,QTc Interval,412.8,msec,412.8,412.8,msec,,CHEST,SUPINE,12-LEAD ECG,,,NORMAL,WEEK 12,4,2025-04-19,84,PREDOSE,1
STUDY001,EG,STUDY001-SUBJ0030,19,PR,PR Interval,168.7,msec,168.7,168.7,msec,,CHEST,SUPINE,12-LEAD ECG,,NOT DONE,NORMAL,WEEK 12,4,2025-04-19,84,PREDOSE,1
STUDY001,EG,STUDY001-SUBJ0030,20,QRS,QRS Duration,78.2,msec,78.2,78.2,msec,,CHEST,SUPINE,12-LEAD ECG,,,NORMAL,WEEK 12,4,2025-04-19,84,PREDOSE,1
STUDY001,EG,STUDY001-SUBJ0030,21,HR,Heart Rate,70.6,beats/min,70.6,70.6,beats/min,,CHEST,SUPINE,12-LEAD ECG,TECHNICAL FAILURE,,NORMAL,END OF TREATMENT,5,2025-06-14,140,PREDOSE,1
STUDY001,EG,STUDY001-SUBJ0030,22,QT,QT Interval,420.0,msec,420.0,420.0,msec,,CHEST,SUPINE,12-LEAD ECG,,,NORMAL,END OF TREATMENT,5,2025-06-14,140,PREDOSE,1
STUDY001,EG,STUDY001-SUBJ0030,23,QTC,QTc Interval,410.9,msec,410.9,410.9,msec,,CHEST,SUPINE,12-LEAD ECG,,,NORMAL,END OF TREATMENT,5,2025-06-14,140,PREDOSE,1
STUDY001,EG,STUDY001-SUBJ0030,24,PR,PR Interval,171.6,msec,171.6,171.6,msec,,CHEST,SUPINE,12-LEAD ECG,,,NORMAL,END OF TREATMENT,5,2025-06-14,140,PREDOSE,1
STUDY001,EG,STUDY001-SUBJ0030,25,QRS,QRS Duration,83.9,msec,83.9,83.9,msec,,CHEST,SUPINE,12-LEAD ECG,,,NORMAL,END OF TREATMENT,5,2025-06-14,140,PREDOSE,1
STUDY001,EG,STUDY001-SUBJ0031,1,HR,Heart Rate,74.3,beats/min,74.3,74.3,beats/min,,CHEST,SUPINE,12-LEAD ECG,,,NORMAL,SCREENING,1,2025-01-24,-14,PREDOSE,1
STUDY001,EG,STUDY001-SUBJ0031,2,QT,QT Interval,411.2,msec,411.2,411.2,msec,,CHEST,SUPINE,12-LEAD ECG,,,NORMAL,SCREENING,1,2025-01-24,-14,PREDOSE,1
STUDY001,EG,STUDY001-SUBJ0031,3,QTC,QTc Interval,395.9,msec,395.9,395.9,msec,,CHEST,SUPINE,12-LEAD ECG,,,NORMAL,SCREENING,1,2025-01-24,-14,PREDOSE,1
STUDY001,EG,STUDY001-SUBJ0031,4,PR,PR Interval,156.5,msec,156.5,156.5,msec,,CHEST,SUPINE,12-LEAD ECG,,,NORMAL,SCREENING,1,2025-01-24,-14,PREDOSE,1
STUDY001,EG,STUDY001-SUBJ0031,5,QRS,QRS Duration,90.0,msec,90.0,90.0,msec,,CHEST,SUPINE,12-LEAD ECG,,,NORMAL,SCREENING,1,2025-01-24,-14,PREDOSE,1
STUDY001,EG,STUDY001-SUBJ0031,6,HR,Heart Rate,77.6,beats/min,77.6,77.6,beats/min,Y,CHEST,SUPINE,12-LEAD ECG,,,NORMAL,BASELINE,2,2025-02-07,1,PREDOSE,1
STUDY001,EG,STUDY001-SUBJ0031,7,QT,QT Interval,404.7,msec,404.7,404.7,msec,Y,CHEST,SUPINE,12-LEAD ECG,,,NORMAL,BASELINE,2,2025-02-07,1,PREDOSE,1
STUDY001,EG,STUDY001-SUBJ0031,8,QTC,QTc Interval,395.8,msec,395.8,395.8,msec,Y,CHEST,SUPINE,12-LEAD ECG,,,NORMAL,BASELINE,2,2025-02-07,1,PREDOSE,1
STUDY001,EG,STUDY001-SUBJ0031,9,PR,PR Interval,155.5,msec,155.5,155.5,msec,Y,CHEST,SUPINE,12-LEAD ECG,,,NORMAL,BASELINE,2,2025-02-07,1,PREDOSE,1
STUDY001,EG,STUDY001-SUBJ0031,10,QRS,QRS Duration,86.3,msec,86.3,86.3,msec,Y,CHEST,SUPINE,12-LEAD ECG,,,NORMAL,BASELINE,2,2025-02-07,1,PREDOSE,1
STUDY001,EG,STUDY001-SUBJ0031,11,HR,Heart Rate,73.4,beats/min,73.4,73.4,beats/min,,CHEST,SUPINE,12-LEAD ECG,,,NORMAL,WEEK 4,3,2025-03-06,28,PREDOSE,1
STUDY001,EG,STUDY001-SUBJ0031,12,QT,QT Interval,410.5,msec,410.5,410.5,msec,,CHEST,SUPINE,12-LEAD ECG,,,NORMAL,WEEK 4,3,2025-03-06,28,PREDOSE,1
STUDY001,EG,STUDY001-SUBJ0031,13,QTC,QTc Interval,391.6,msec,391.6,391.6,msec,,CHEST,SUPINE,12-LEAD ECG,,,NORMAL,WEEK 4,3,2025-03-06,28,PREDOSE,1
STUDY001,EG,STUDY001-SUBJ0031,14,PR,PR Interval,153.5,msec,153.5,153.5,msec,,CHEST,SUPINE,12-LEAD ECG,,,NORMAL,WEEK 4,3,2025-03-06,28,PREDOSE,1
STUDY001,EG,STUDY001-SUBJ0031,15,QRS,QRS Duration,88.0,msec,88.0,88.0,msec,,CHEST,SUPINE,12-LEAD ECG,,,NORMAL,WEEK 4,3,2025-03-06,28,PREDOSE,1
STUDY001,EG,STUDY001-SUBJ0031,16,HR,Heart Rate,79.3,beats/min,79.3,79.3,beats/min,,CHEST,SUPINE,12-LEAD ECG,,,NORMAL,WEEK 12,4,2025-05-01,84,PREDOSE,1
STUDY001,EG,STUDY001-SUBJ0031,17,QT,QT Interval,403.2,msec,403.2,403.2,msec,,CHEST,SUPINE,12-LEAD ECG,,,NORMAL,WEEK 12,4,2025-05-01,84,PREDOSE,1
STUDY001,EG,STUDY001-SUBJ0031,18,QTC,QTc Interval,390.1,msec,390.1,390.1,msec,,CHEST,SUPINE,12-LEAD ECG,,,NORMAL,WEEK 12,4,2025-05-01,84,PREDOSE,1
STUDY001,EG,STUDY001-SUBJ0031,19,PR,PR Interval,149.3,msec,149.3,149.3,msec,,CHEST,SUPINE,12-LEAD ECG,,,NORMAL,WEEK 12,4,2025-05-01,84,PREDOSE,1
STUDY001,EG,STUDY001-SUBJ0031,20,QRS,QRS Duration,85.3,msec,85.3,85.3,msec,,CHEST,SUPINE,12-LEAD ECG,,NOT DONE,NORMAL,WEEK 12,4,2025-05-01,84,PREDOSE,1
STUDY001,EG,STUDY001-SUBJ0031,21,HR,Heart Rate,73.9,beats/min,73.9,73.9,beats/min,,CHEST,SUPINE,12-LEAD ECG,,,NORMAL,END OF TREATMENT,5,2025-06-26,140,PREDOSE,1
STUDY001,EG,STUDY001-SUBJ0031,22,QT,QT Interval,404.0,msec,404.0,404.0,msec,,CHEST,SUPINE,12-LEAD ECG,,,NORMAL,END OF TREATMENT,5,2025-06-26,140,PREDOSE,1
STUDY001,EG,STUDY001-SUBJ0031,23,QTC,QTc Interval,397.3,msec,397.3,397.3,msec,,CHEST,SUPINE,12-LEAD ECG,,,NORMAL,END OF TREATMENT,5,2025-06-26,140,PREDOSE,1
STUDY001,EG,STUDY001-SUBJ0031,24,PR,PR Interval,153.5,msec,153.5,153.5,msec,,CHEST,SUPINE,12-LEAD ECG,,,NORMAL,END OF TREATMENT,5,2025-06-26,140,PREDOSE,1
STUDY001,EG,STUDY001-SUBJ0031,25,QRS,QRS Duration,90.8,msec,90.8,90.8,msec,,CHEST,SUPINE,12-LEAD ECG,,,NORMAL,END OF TREATMENT,5,2025-06-26,140,PREDOSE,1
STUDY001,EG,STUDY001-SUBJ0032,1,HR,Heart Rate,72.1,beats/min,72.1,72.1,beats/min,,CHEST,SUPINE,12-LEAD ECG,,,NORMAL,SCREENING,1,2025-04-26,-14,PREDOSE,1
STUDY001,EG,STUDY001-SUBJ0032,2,QT,QT Interval,395.6,msec,395.6,395.6,msec,,CHEST,SUPINE,12-LEAD ECG,,NOT DONE,NORMAL,SCREENING,1,2025-04-26,-14,PREDOSE,1
STUDY001,EG,STUDY001-SUBJ0032,3,QTC,QTc Interval,403.9,msec,403.9,403.9,msec,,CHEST,SUPINE,12-LEAD ECG,,,NORMAL,SCREENING,1,2025-04-26,-14,PREDOSE,1
STUDY001,EG,STUDY001-SUBJ0032,4,PR,PR Interval,174.7,msec,174.7,174.7,msec,,CHEST,SUPINE,12-LEAD ECG,,,NORMAL,SCREENING,1,2025-04-26,-14,PREDOSE,1
STUDY001,EG,STUDY001-SUBJ0032,5,QRS,QRS Duration,91.9,msec,91.9,91.9,msec,,CHEST,SUPINE,12-LEAD ECG,,,NORMAL,SCREENING,1,2025-04-26,-14,PREDOSE,1
STUDY001,EG,STUDY001-SUBJ0032,6,HR,Heart Rate,69.1,beats/min,69.1,69.1,beats/min,Y,CHEST,SUPINE,12-LEAD ECG,,,NORMAL,BASELINE,2,2025-05-10,1,PREDOSE,1
STUDY001,EG,STUDY001-SUBJ0032,7,QT,QT Interval,394.5,msec,394.5,394.5,msec,Y,CHEST,SUPINE,12-LEAD ECG,,,NORMAL,BASELINE,2,2025-05-10,1,PREDOSE,1
STUDY001,EG,STUDY001-SUBJ0032,8,QTC,QTc Interval,397.6,msec,397.6,397.6,msec,Y,CHEST,SUPINE,12-LEAD ECG,,,NORMAL,BASELINE,2,2025-05-10,1,PREDOSE,1
STUDY001,EG,STUDY001-SUBJ0032,9,PR,PR Interval,170.8,msec,170.8,170.8,msec,Y,CHEST,SUPINE,12-LEAD ECG,,,NORMAL,BASELINE,2,2025-05-10,1,PREDOSE,1
STUDY001,EG,STUDY001-SUBJ0032,10,QRS,QRS Duration,91.6,msec,91.6,91.6,msec,Y,CHEST,SUPINE,12-LEAD ECG,,,NORMAL,BASELINE,2,2025-05-10,1,PREDOSE,1
STUDY001,EG,STUDY001-SUBJ0032,11,HR,Heart Rate,70.3,beats/min,70.3,70.3,beats/min,,CHEST,SUPINE,12-LEAD ECG,,,NORMAL,WEEK 4,3,2025-06-06,28,PREDOSE,1
STUDY001,EG,STUDY001-SUBJ0032,12,QT,QT Interval,395.9,msec,395.9,395.9,msec,,CHEST,SUPINE,12-LEAD ECG,,,NORMAL,WEEK 4,3,2025-06-06,28,PREDOSE,1
STUDY001,EG,STUDY001-SUBJ0032,13,QTC,QTc Interval,400.5,msec,400.5,400.5,msec,,CHEST,SUPINE,12-LEAD ECG,,,NORMAL,WEEK 4,3,2025-06-06,28,PREDOSE,1
STUDY001,EG,STUDY001-SUBJ0032,14,PR,PR Interval,176.1,msec,176.1,176.1,msec,,CHEST,SUPINE,12-LEAD ECG,,,NORMAL,WEEK 4,3,2025-06-06,28,PREDOSE,1
STUDY001,EG,STUDY001-SUBJ0032,15,QRS,QRS Duration,94.1,msec,94.1,94.1,msec,,CHEST,SUPINE,12-LEAD ECG,,,NORMAL,WEEK 4,3,2025-06-06,28,PREDOSE,1
STUDY001,EG,STUDY001-SUBJ0032,16,HR,Heart Rate,74.3,beats/min,74.3,74.3,beats/min,,CHEST,SUPINE,12-LEAD ECG,,,NORMAL,WEEK 12,4,2025-08-01,84,PREDOSE,1
STUDY001,EG,STUDY001-SUBJ0032,17,QT,QT Interval,392.7,msec,392.7,392.7,msec,,CHEST,SUPINE,12-LEAD ECG,,,NORMAL,WEEK 12,4,2025-08-01,84,PREDOSE,1
STUDY001,EG,STUDY001-SUBJ0032,18,QTC,QTc Interval,405.8,msec,405.8,405.8,msec,,CHEST,SUPINE,12-LEAD ECG,,,NORMAL,WEEK 12,4,2025-08-01,84,PREDOSE,1
STUDY001,EG,STUDY001-SUBJ0032,19,PR,PR Interval,176.6,msec,176.6,176.6,msec,,CHEST,SUPINE,12-LEAD ECG,,,NORMAL,WEEK 12,4,2025-08-01,84,PREDOSE,1
STUDY001,EG,STUDY001-SUBJ0032,20,QRS,QRS Duration,92.8,msec,92.8,92.8,msec,,CHEST,SUPINE,12-LEAD ECG,,,NORMAL,WEEK 12,4,2025-08-01,84,PREDOSE,1
STUDY001,EG,STUDY001-SUBJ0032,21,HR,Heart Rate,70.1,beats/min,70.1,70.1,beats/min,,CHEST,SUPINE,12-LEAD ECG,,,NORMAL,END OF TREATMENT,5,2025-09-26,140,PREDOSE,1
STUDY001,EG,STUDY001-SUBJ0032,22,QT,QT Interval,401.5,msec,401.5,401.5,msec,,CHEST,SUPINE,12-LEAD ECG,,,NORMAL,END OF TREATMENT,5,2025-09-26,140,PREDOSE,1
STUDY001,EG,STUDY001-SUBJ0032,23,QTC,QTc Interval,396.8,msec,396.8,396.8,msec,,CHEST,SUPINE,12-LEAD ECG,,,NORMAL,END OF TREATMENT,5,2025-09-26,140,PREDOSE,1
STUDY001,EG,STUDY001-SUBJ0032,24,PR,PR Interval,173.8,msec,173.8,173.8,msec,,CHEST,SUPINE,12-LEAD ECG,,,NORMAL,END OF TREATMENT,5,2025-09-26,140,PREDOSE,1
STUDY001,EG,STUDY001-SUBJ0032,25,QRS,QRS Duration,93.2,msec,93.2,93.2,msec,,CHEST,SUPINE,12-LEAD ECG,,,NORMAL,END OF TREATMENT,5,2025-09-26,140,PREDOSE,1
STUDY001,EG,STUDY001-SUBJ0033,1,HR,Heart Rate,72.8,beats/min,72.8,72.8,beats/min,,CHEST,SUPINE,12-LEAD ECG,,,NORMAL,SCREENING,1,2024-12-29,-14,PREDOSE,1
STUDY001,EG,STUDY001-SUBJ0033,2,QT,QT Interval,428.9,msec,428.9,428.9,msec,,CHEST,SUPINE,12-LEAD ECG,,NOT DONE,NORMAL,SCREENING,1,2024-12-29,-14,PREDOSE,1
STUDY001,EG,STUDY001-SUBJ0033,3,QTC,QTc Interval,427.3,msec,427.3,427.3,msec,,CHEST,SUPINE,12-LEAD ECG,,,NORMAL,SCREENING,1,2024-12-29,-14,PREDOSE,1
STUDY001,EG,STUDY001-SUBJ0033,4,PR,PR Interval,141.9,msec,141.9,141.9,msec,,CHEST,SUPINE,12-LEAD ECG,,,NORMAL,SCREENING,1,2024-12-29,-14,PREDOSE,1
STUDY001,EG,STUDY001-SUBJ0033,5,QRS,QRS Duration,91.0,msec,91.0,91.0,msec,,CHEST,SUPINE,12-LEAD ECG,,,NORMAL,SCREENING,1,2024-12-29,-14,PREDOSE,1
STUDY001,EG,STUDY001-SUBJ0033,6,HR,Heart Rate,67.8,beats/min,67.8,67.8,beats/min,Y,CHEST,SUPINE,12-LEAD ECG,,,NORMAL,BASELINE,2,2025-01-12,1,PREDOSE,1
STUDY001,EG,STUDY001-SUBJ0033,7,QT,QT Interval,431.0,msec,431.0,431.0,msec,Y,CHEST,SUPINE,12-LEAD ECG,,,NORMAL,BASELINE,2,2025-01-12,1,PREDOSE,1
STUDY001,EG,STUDY001-SUBJ0033,8,QTC,QTc Interval,426.6,msec,426.6,426.6,msec,Y,CHEST,SUPINE,12-LEAD ECG,,,NORMAL,BASELINE,2,2025-01-12,1,PREDOSE,1
STUDY001,EG,STUDY001-SUBJ0033,9,PR,PR Interval,136.5,msec,136.5,136.5,msec,Y,CHEST,SUPINE,12-LEAD ECG,,,NORMAL,BASELINE,2,2025-01-12,1,PREDOSE,1
STUDY001,EG,STUDY001-SUBJ0033,10,QRS,QRS Duration,84.5,msec,84.5,84.5,msec,Y,CHEST,SUPINE,12-LEAD ECG,,,NORMAL,BASELINE,2,2025-01-12,1,PREDOSE,1
STUDY001,EG,STUDY001-SUBJ0033,11,HR,Heart Rate,72.8,beats/min,72.8,72.8,beats/min,,CHEST,SUPINE,12-LEAD ECG,,,NORMAL,WEEK 4,3,2025-02-08,28,PREDOSE,1
STUDY001,EG,STUDY001-SUBJ0033,12,QT,QT Interval,427.5,msec,427.5,427.5,msec,,CHEST,SUPINE,12-LEAD ECG,,,NORMAL,WEEK 4,3,2025-02-08,28,PREDOSE,1
STUDY001,EG,STUDY001-SUBJ0033,13,QTC,QTc Interval,433.0,msec,433.0,433.0,msec,,CHEST,SUPINE,12-LEAD ECG,,,NORMAL,WEEK 4,3,2025-02-08,28,PREDOSE,1
STUDY001,EG,STUDY001-SUBJ0033,14,PR,PR Interval,144.7,msec,144.7,144.7,msec,,CHEST,SUPINE,12-LEAD ECG,,,NORMAL,WEEK 4,3,2025-02-08,28,PREDOSE,1
STUDY001,EG,STUDY001-SUBJ0033,15,QRS,QRS Duration,84.0,msec,84.0,84.0,msec,,CHEST,SUPINE,12-LEAD ECG,,,NORMAL,WEEK 4,3,2025-02-08,28,PREDOSE,1
STUDY001,EG,STUDY001-SUBJ0033,16,HR,Heart Rate,74.0,beats/min,74.0,74.0,beats/min,,CHEST,SUPINE,12-LEAD ECG,,,NORMAL,WEEK 12,4,2025-04-05,84,PREDOSE,1
STUDY001,EG,STUDY001-SUBJ0033,17,QT,QT Interval,428.4,msec,428.4,428.4,msec,,CHEST,SUPINE,12-LEAD ECG,,,NORMAL,WEEK 12,4,2025-04-05,84,PREDOSE,1
STUDY001,EG,STUDY001-SUBJ0033,18,QTC,QTc Interval,433.9,msec,433.9,433.9,msec,,CHEST,SUPINE,12-LEAD ECG,,,NORMAL,WEEK 12,4,2025-04-05,84,PREDOSE,1
STUDY001,EG,STUDY001-SUBJ0033,19,PR,PR Interval,136.3,msec,136.3,136.3,msec,,CHEST,SUPINE,12-LEAD ECG,,,NORMAL,WEEK 12,4,2025-04-05,84,PREDOSE,1
STUDY001,EG,STUDY001-SUBJ0033,20,QRS,QRS Duration,85.6,msec,85.6,85.6,msec,,CHEST,SUPINE,12-LEAD ECG,,,NORMAL,WEEK 12,4,2025-04-05,84,PREDOSE,1
STUDY001,EG,STUDY001-SUBJ0033,21,HR,Heart Rate,72.2,beats/min,72.2,72.2,beats/min,,CHEST,SUPINE,12-LEAD ECG,,,NORMAL,END OF TREATMENT,5,2025-05-31,140,PREDOSE,1
STUDY001,EG,STUDY001-SUBJ0033,22,QT,QT Interval,431.1,msec,431.1,431.1,msec,,CHEST,SUPINE,12-LEAD ECG,,,NORMAL,END OF TREATMENT,5,2025-05-31,140,PREDOSE,1
STUDY001,EG,STUDY001-SUBJ0033,23,QTC,QTc Interval,435.5,msec,435.5,435.5,msec,,CHEST,SUPINE,12-LEAD ECG,,,NORMAL,END OF TREATMENT,5,2025-05-31,140,PREDOSE,1
STUDY001,EG,STUDY001-SUBJ0033,24,PR,PR Interval,141.2,msec,141.2,141.2,msec,,CHEST,SUPINE,12-LEAD ECG,,,NORMAL,END OF TREATMENT,5,2025-05-31,140,PREDOSE,1
STUDY001,EG,STUDY001-SUBJ0033,25,QRS,QRS Duration,87.7,msec,87.7,87.7,msec,,CHEST,SUPINE,12-LEAD ECG,,,NORMAL,END OF TREATMENT,5,2025-05-31,140,PREDOSE,1
STUDY001,EG,STUDY001-SUBJ0034,1,HR,Heart Rate,61.4,beats/min,61.4,61.4,beats/min,,CHEST,SUPINE,12-LEAD ECG,,,NORMAL,SCREENING,1,2025-04-02,-14,PREDOSE,1
STUDY001,EG,STUDY001-SUBJ0034,2,QT,QT Interval,386.8,msec,386.8,386.8,msec,,CHEST,SUPINE,12-LEAD ECG,,,NORMAL,SCREENING,1,2025-04-02,-14,PREDOSE,1
STUDY001,EG,STUDY001-SUBJ0034,3,QTC,QTc Interval,419.5,msec,419.5,419.5,msec,,CHEST,SUPINE,12-LEAD ECG,,NOT DONE,NORMAL,SCREENING,1,2025-04-02,-14,PREDOSE,1
STUDY001,EG,STUDY001-SUBJ0034,4,PR,PR Interval,166.9,msec,166.9,166.9,msec,,CHEST,SUPINE,12-LEAD ECG,,,NORMAL,SCREENING,1,2025-04-02,-14,PREDOSE,1
STUDY001,EG,STUDY001-SUBJ0034,5,QRS,QRS Duration,83.5,msec,83.5,83.5,msec,,CHEST,SUPINE,12-LEAD ECG,,,NORMAL,SCREENING,1,2025-04-02,-14,PREDOSE,1
STUDY001,EG,STUDY001-SUBJ0034,6,HR,Heart Rate,62.0,beats/min,62.0,62.0,beats/min,Y,CHEST,SUPINE,12-LEAD ECG,,,NORMAL,BASELINE,2,2025-04-16,1,PREDOSE,1
STUDY001,EG,STUDY001-SUBJ0034,7,QT,QT Interval,386.0,msec,386.0,386.0,msec,Y,CHEST,SUPINE,12-LEAD ECG,,,NORMAL,BASELINE,2,2025-04-16,1,PREDOSE,1
STUDY001,EG,STUDY001-SUBJ0034,8,QTC,QTc Interval,426.0,msec,426.0,426.0,msec,Y,CHEST,SUPINE,12-LEAD ECG,,,NORMAL,BASELINE,2,2025-04-16,1,PREDOSE,1
STUDY001,EG,STUDY001-SUBJ0034,9,PR,PR Interval,169.3,msec,169.3,169.3,msec,Y,CHEST,SUPINE,12-LEAD ECG,,,NORMAL,BASELINE,2,2025-04-16,1,PREDOSE,1
STUDY001,EG,STUDY001-SUBJ0034,10,QRS,QRS Duration,82.1,msec,82.1,82.1,msec,Y,CHEST,SUPINE,12-LEAD ECG,,,NORMAL,BASELINE,2,2025-04-16,1,PREDOSE,1
STUDY001,EG,STUDY001-SUBJ0034,11,HR,Heart Rate,63.1,beats/min,63.1,63.1,beats/min,,CHEST,SUPINE,12-LEAD ECG,,,NORMAL,WEEK 4,3,2025-05-13,28,PREDOSE,1
STUDY001,EG,STUDY001-SUBJ0034,12,QT,QT Interval,388.5,msec,388.5,388.5,msec,,CHEST,SUPINE,12-LEAD ECG,,,NORMAL,WEEK 4,3,2025-05-13,28,PREDOSE,1
STUDY001,EG,STUDY001-SUBJ0034,13,QTC,QTc Interval,423.9,msec,423.9,423.9,msec,,CHEST,SUPINE,12-LEAD ECG,,,NORMAL,WEEK 4,3,2025-05-13,28,PREDOSE,1
STUDY001,EG,STUDY001-SUBJ0034,14,PR,PR Interval,172.1,msec,172.1,172.1,msec,,CHEST,SUPINE,12-LEAD ECG,,,NORMAL,WEEK 4,3,2025-05-13,28,PREDOSE,1
STUDY001,EG,STUDY001-SUBJ0034,15,QRS,QRS Duration,84.7,msec,84.7,84.7,msec,,CHEST,SUPINE,12-LEAD ECG,TECHNICAL FAILURE,,NORMAL,WEEK 4,3,2025-05-13,28,PREDOSE,1
STUDY001,EG,STUDY001-SUBJ0034,16,HR,Heart Rate,60.9,beats/min,60.9,60.9,beats/min,,CHEST,SUPINE,12-LEAD ECG,TECHNICAL FAILURE,,NORMAL,WEEK 12,4,2025-07-08,84,PREDOSE,1
STUDY001,EG,STUDY001-SUBJ0034,17,QT,QT Interval,385.7,msec,385.7,385.7,msec,,CHEST,SUPINE,12-LEAD ECG,,,NORMAL,WEEK 12,4,2025-07-08,84,PREDOSE,1
STUDY001,EG,STUDY001-SUBJ0034,18,QTC,QTc Interval,425.7,msec,425.7,425.7,msec,,CHEST,SUPINE,12-LEAD ECG,,,NORMAL,WEEK 12,4,2025-07-08,84,PREDOSE,1
STUDY001,EG,STUDY001-SUBJ0034,19,PR,PR Interval,171.0,msec,171.0,171.0,msec,,CHEST,SUPINE,12-LEAD ECG,,,NORMAL,WEEK 12,4,2025-07-08,84,PREDOSE,1
STUDY001,EG,STUDY001-SUBJ0034,20,QRS,QRS Duration,76.1,msec,76.1,76.1,msec,,CHEST,SUPINE,12-LEAD ECG,,,NORMAL,WEEK 12,4,2025-07-08,84,PREDOSE,1
STUDY001,EG,STUDY001-SUBJ0034,21,HR,Heart Rate,57.0,beats/min,57.0,57.0,beats/min,,CHEST,SUPINE,12-LEAD ECG,,,LOW,END OF TREATMENT,5,2025-09-02,140,PREDOSE,1
STUDY001,EG,STUDY001-SUBJ0034,22,QT,QT Interval,385.2,msec,385.2,385.2,msec,,CHEST,SUPINE,12-LEAD ECG,,,NORMAL,END OF TREATMENT,5,2025-09-02,140,PREDOSE,1
STUDY001,EG,STUDY001-SUBJ0034,23,QTC,QTc Interval,427.0,msec,427.0,427.0,msec,,CHEST,SUPINE,12-LEAD ECG,,,NORMAL,END OF TREATMENT,5,2025-09-02,140,PREDOSE,1
STUDY001,EG,STUDY001-SUBJ0034,24,PR,PR Interval,168.9,msec,168.9,168.9,msec,,CHEST,SUPINE,12-LEAD ECG,,,NORMAL,END OF TREATMENT,5,2025-09-02,140,PREDOSE,1
STUDY001,EG,STUDY001-SUBJ0034,25,QRS,QRS Duration,78.2,msec,78.2,78.2,msec,,CHEST,SUPINE,12-LEAD ECG,,,NORMAL,END OF TREATMENT,5,2025-09-02,140,PREDOSE,1
STUDY001,EG,STUDY001-SUBJ0035,1,HR,Heart Rate,74.8,beats/min,74.8,74.8,beats/min,,CHEST,SUPINE,12-LEAD ECG,,,NORMAL,SCREENING,1,2025-07-06,-14,PREDOSE,1
STUDY001,EG,STUDY001-SUBJ0035,2,QT,QT Interval,366.3,msec,366.3,366.3,msec,,CHEST,SUPINE,12-LEAD ECG,,,NORMAL,SCREENING,1,2025-07-06,-14,PREDOSE,1
STUDY001,EG,STUDY001-SUBJ0035,3,QTC,QTc Interval,407.0,msec,407.0,407.0,msec,,CHEST,SUPINE,12-LEAD ECG,,,NORMAL,SCREENING,1,2025-07-06,-14,PREDOSE,1
STUDY001,EG,STUDY001-SUBJ0035,4,PR,PR Interval,176.0,msec,176.0,176.0,msec,,CHEST,SUPINE,12-LEAD ECG,TECHNICAL FAILURE,,NORMAL,SCREENING,1,2025-07-06,-14,PREDOSE,1
STUDY001,EG,STUDY001-SUBJ0035,5,QRS,QRS Duration,91.0,msec,91.0,91.0,msec,,CHEST,SUPINE,12-LEAD ECG,,,NORMAL,SCREENING,1,2025-07-06,-14,PREDOSE,1
STUDY001,EG,STUDY001-SUBJ0035,6,HR,Heart Rate,74.4,beats/min,74.4,74.4,beats/min,Y,CHEST,SUPINE,12-LEAD ECG,,,NORMAL,BASELINE,2,2025-07-20,1,PREDOSE,1
STUDY001,EG,STUDY001-SUBJ0035,7,QT,QT Interval,374.9,msec,374.9,374.9,msec,Y,CHEST,SUPINE,12-LEAD ECG,,,NORMAL,BASELINE,2,2025-07-20,1,PREDOSE,1
STUDY001,EG,STUDY001-SUBJ0035,8,QTC,QTc Interval,404.8,msec,404.8,404.8,msec,Y,CHEST,SUPINE,12-LEAD ECG,,,NORMAL,BASELINE,2,2025-07-20,1,PREDOSE,1
STUDY001,EG,STUDY001-SUBJ0035,9,PR,PR Interval,180.4,msec,180.4,180.4,msec,Y,CHEST,SUPINE,12-LEAD ECG,,,NORMAL,BASELINE,2,2025-07-20,1,PREDOSE,1
STUDY001,EG,STUDY001-SUBJ0035,10,QRS,QRS Duration,91.8,msec,91.8,91.8,msec,Y,CHEST,SUPINE,12-LEAD ECG,,,NORMAL,BASELINE,2,2025-07-20,1,PREDOSE,1
STUDY001,EG,STUDY001-SUBJ0035,11,HR,Heart Rate,76.9,beats/min,76.9,76.9,beats/min,,CHEST,SUPINE,12-LEAD ECG,,,NORMAL,WEEK 4,3,2025-08-16,28,PREDOSE,1
STUDY001,EG,STUDY001-SUBJ0035,12,QT,QT Interval,367.2,msec,367.2,367.2,msec,,CHEST,SUPINE,12-LEAD ECG,,,NORMAL,WEEK 4,3,2025-08-16,28,PREDOSE,1
STUDY001,EG,STUDY001-SUBJ0035,13,QTC,QTc Interval,402.6,msec,402.6,402.6,msec,,CHEST,SUPINE,12-LEAD ECG,,,NORMAL,WEEK 4,3,2025-08-16,28,PREDOSE,1
STUDY001,EG,STUDY001-SUBJ0035,14,PR,PR Interval,180.0,msec,180.0,180.0,msec,,CHEST,SUPINE,12-LEAD ECG,,,NORMAL,WEEK 4,3,2025-08-16,28,PREDOSE,1
STUDY001,EG,STUDY001-SUBJ0035,15,QRS,QRS Duration,91.2,msec,91.2,91.2,msec,,CHEST,SUPINE,12-LEAD ECG,,,NORMAL,WEEK 4,3,2025-08-16,28,PREDOSE,1
STUDY001,EG,STUDY001-SUBJ0035,16,HR,Heart Rate,71.6,beats/min,71.6,71.6,beats/min,,CHEST,SUPINE,12-LEAD ECG,,,NORMAL,WEEK 12,4,2025-10-11,84,PREDOSE,1
STUDY001,EG,STUDY001-SUBJ0035,17,QT,QT Interval,370.6,msec,370.6,370.6,msec,,CHEST,SUPINE,12-LEAD ECG,,,NORMAL,WEEK 12,4,2025-10-11,84,PREDOSE,1
STUDY001,EG,STUDY001-SUBJ0035,18,QTC,QTc Interval,408.0,msec,408.0,408.0,msec,,CHEST,SUPINE,12-LEAD ECG,TECHNICAL FAILURE,,NORMAL,WEEK 12,4,2025-10-11,84,PREDOSE,1
STUDY001,EG,STUDY001-SUBJ0035,19,PR,PR Interval,175.5,msec,175.5,175.5,msec,,CHEST,SUPINE,12-LEAD ECG,,,NORMAL,WEEK 12,4,2025-10-11,84,PREDOSE,1
STUDY001,EG,STUDY001-SUBJ0035,20,QRS,QRS Duration,90.6,msec,90.6,90.6,msec,,CHEST,SUPINE,12-LEAD ECG,,,NORMAL,WEEK 12,4,2025-10-11,84,PREDOSE,1
STUDY001,EG,STUDY001-SUBJ0035,21,HR,Heart Rate,72.7,beats/min,72.7,72.7,beats/min,,CHEST,SUPINE,12-LEAD ECG,,,NORMAL,END OF TREATMENT,5,2025-12-06,140,PREDOSE,1
STUDY001,EG,STUDY001-SUBJ0035,22,QT,QT Interval,366.2,msec,366.2,366.2,msec,,CHEST,SUPINE,12-LEAD ECG,,,NORMAL,END OF TREATMENT,5,2025-12-06,140,PREDOSE,1
STUDY001,EG,STUDY001-SUBJ0035,23,QTC,QTc Interval,403.6,msec,403.6,403.6,msec,,CHEST,SUPINE,12-LEAD ECG,,,NORMAL,END OF TREATMENT,5,2025-12-06,140,PREDOSE,1
STUDY001,EG,STUDY001-SUBJ0035,24,PR,PR Interval,182.9,msec,182.9,182.9,msec,,CHEST,SUPINE,12-LEAD ECG,,,NORMAL,END OF TREATMENT,5,2025-12-06,140,PREDOSE,1
STUDY001,EG,STUDY001-SUBJ0035,25,QRS,QRS Duration,91.9,msec,91.9,91.9,msec,,CHEST,SUPINE,12-LEAD ECG,,,NORMAL,END OF TREATMENT,5,2025-12-06,140,PREDOSE,1
STUDY001,EG,STUDY001-SUBJ0036,1,HR,Heart Rate,77.8,beats/min,77.8,77.8,beats/min,,CHEST,SUPINE,12-LEAD ECG,,,NORMAL,SCREENING,1,2025-07-07,-14,PREDOSE,1
STUDY001,EG,STUDY001-SUBJ0036,2,QT,QT Interval,394.8,msec,394.8,394.8,msec,,CHEST,SUPINE,12-LEAD ECG,,,NORMAL,SCREENING,1,2025-07-07,-14,PREDOSE,1
STUDY001,EG,STUDY001-SUBJ0036,3,QTC,QTc Interval,428.8,msec,428.8,428.8,msec,,CHEST,SUPINE,12-LEAD ECG,,,NORMAL,SCREENING,1,2025-07-07,-14,PREDOSE,1
STUDY001,EG,STUDY001-SUBJ0036,4,PR,PR Interval,141.3,msec,141.3,141.3,msec,,CHEST,SUPINE,12-LEAD ECG,,,NORMAL,SCREENING,1,2025-07-07,-14,PREDOSE,1
STUDY001,EG,STUDY001-SUBJ0036,5,QRS,QRS Duration,89.2,msec,89.2,89.2,msec,,CHEST,SUPINE,12-LEAD ECG,,,NORMAL,SCREENING,1,2025-07-07,-14,PREDOSE,1
STUDY001,EG,STUDY001-SUBJ0036,6,HR,Heart Rate,76.7,beats/min,76.7,76.7,beats/min,Y,CHEST,SUPINE,12-LEAD ECG,,,NORMAL,BASELINE,2,2025-07-21,1,PREDOSE,1
STUDY001,EG,STUDY001-SUBJ0036,7,QT,QT Interval,399.2,msec,399.2,399.2,msec,Y,CHEST,SUPINE,12-LEAD ECG,,,NORMAL,BASELINE,2,2025-07-21,1,PREDOSE,1
STUDY001,EG,STUDY001-SUBJ0036,8,QTC,QTc Interval,423.8,msec,423.8,423.8,msec,Y,CHEST,SUPINE,12-LEAD ECG,,,NORMAL,BASELINE,2,2025-07-21,1,PREDOSE,1
STUDY001,EG,STUDY001-SUBJ0036,9,PR,PR Interval,141.7,msec,141.7,141.7,msec,Y,CHEST,SUPINE,12-LEAD ECG,,,NORMAL,BASELINE,2,2025-07-21,1,PREDOSE,1
STUDY001,EG,STUDY001-SUBJ0036,10,QRS,QRS Duration,79.7,msec,79.7,79.7,msec,Y,CHEST,SUPINE,12-LEAD ECG,,,NORMAL,BASELINE,2,2025-07-21,1,PREDOSE,1
STUDY001,EG,STUDY001-SUBJ0036,11,HR,Heart Rate,76.7,beats/min,76.7,76.7,beats/min,,CHEST,SUPINE,12-LEAD ECG,,,NORMAL,WEEK 4,3,2025-08-17,28,PREDOSE,1
STUDY001,EG,STUDY001-SUBJ0036,12,QT,QT Interval,403.2,msec,403.2,403.2,msec,,CHEST,SUPINE,12-LEAD ECG,,,NORMAL,WEEK 4,3,2025-08-17,28,PREDOSE,1
STUDY001,EG,STUDY001-SUBJ0036,13,QTC,QTc Interval,429.4,msec,429.4,429.4,msec,,CHEST,SUPINE,12-LEAD ECG,,,NORMAL,WEEK 4,3,2025-08-17,28,PREDOSE,1
STUDY001,EG,STUDY001-SUBJ0036,14,PR,PR Interval,146.7,msec,146.7,146.7,msec,,CHEST,SUPINE,12-LEAD ECG,,,NORMAL,WEEK 4,3,2025-08-17,28,PREDOSE,1
STUDY001,EG,STUDY001-SUBJ0036,15,QRS,QRS Duration,85.6,msec,85.6,85.6,msec,,CHEST,SUPINE,12-LEAD ECG,,,NORMAL,WEEK 4,3,2025-08-17,28,PREDOSE,1
STUDY001,EG,STUDY001-SUBJ0036,16,HR,Heart Rate,79.6,beats/min,79.6,79.6,beats/min,,CHEST,SUPINE,12-LEAD ECG,,,NORMAL,WEEK 12,4,2025-10-12,84,PREDOSE,1
STUDY001,EG,STUDY001-SUBJ0036,17,QT,QT Interval,402.2,msec,402.2,402.2,msec,,CHEST,SUPINE,12-LEAD ECG,,NOT DONE,NORMAL,WEEK 12,4,2025-10-12,84,PREDOSE,1
STUDY001,EG,STUDY001-SUBJ0036,18,QTC,QTc Interval,430.6,msec,430.6,430.6,msec,,CHEST,SUPINE,12-LEAD ECG,,,NORMAL,WEEK 12,4,2025-10-12,84,PREDOSE,1
STUDY001,EG,STUDY001-SUBJ0036,19,PR,PR Interval,140.0,msec,140.0,140.0,msec,,CHEST,SUPINE,12-LEAD ECG,,,NORMAL,WEEK 12,4,2025-10-12,84,PREDOSE,1
STUDY001,EG,STUDY001-SUBJ0036,20,QRS,QRS Duration,85.4,msec,85.4,85.4,msec,,CHEST,SUPINE,12-LEAD ECG,,,NORMAL,WEEK 12,4,2025-10-12,84,PREDOSE,1
STUDY001,EG,STUDY001-SUBJ0036,21,HR,Heart Rate,70.2,beats/min,70.2,70.2,beats/min,,CHEST,SUPINE,12-LEAD ECG,,NOT DONE,NORMAL,END OF TREATMENT,5,2025-12-07,140,PREDOSE,1
STUDY001,EG,STUDY001-SUBJ0036,22,QT,QT Interval,402.7,msec,402.7,402.7,msec,,CHEST,SUPINE,12-LEAD ECG,,,NORMAL,END OF TREATMENT,5,2025-12-07,140,PREDOSE,1
STUDY001,EG,STUDY001-SUBJ0036,23,QTC,QTc Interval,428.7,msec,428.7,428.7,msec,,CHEST,SUPINE,12-LEAD ECG,,,NORMAL,END OF TREATMENT,5,2025-12-07,140,PREDOSE,1
STUDY001,EG,STUDY001-SUBJ0036,24,PR,PR Interval,148.5,msec,148.5,148.5,msec,,CHEST,SUPINE,12-LEAD ECG,,,NORMAL,END OF TREATMENT,5,2025-12-07,140,PREDOSE,1
STUDY001,EG,STUDY001-SUBJ0036,25,QRS,QRS Duration,84.5,msec,84.5,84.5,msec,,CHEST,SUPINE,12-LEAD ECG,,,NORMAL,END OF TREATMENT,5,2025-12-07,140,PREDOSE,1
STUDY001,EG,STUDY001-SUBJ0037,1,HR,Heart Rate,81.5,beats/min,81.5,81.5,beats/min,,CHEST,SUPINE,12-LEAD ECG,,,NORMAL,SCREENING,1,2025-03-11,-14,PREDOSE,1
STUDY001,EG,STUDY001-SUBJ0037,2,QT,QT Interval,394.3,msec,394.3,394.3,msec,,CHEST,SUPINE,12-LEAD ECG,,,NORMAL,SCREENING,1,2025-03-11,-14,PREDOSE,1
STUDY001,EG,STUDY001-SUBJ0037,3,QTC,QTc Interval,401.9,msec,401.9,401.9,msec,,CHEST,SUPINE,12-LEAD ECG,,,NORMAL,SCREENING,1,2025-03-11,-14,PREDOSE,1
STUDY001,EG,STUDY001-SUBJ0037,4,PR,PR Interval,153.4,msec,153.4,153.4,msec,,CHEST,SUPINE,12-LEAD ECG,,,NORMAL,SCREENING,1,2025-03-11,-14,PREDOSE,1
STUDY001,EG,STUDY001-SUBJ0037,5,QRS,QRS Duration,81.8,msec,81.8,81.8,msec,,CHEST,SUPINE,12-LEAD ECG,TECHNICAL FAILURE,,NORMAL,SCREENING,1,2025-03-11,-14,PREDOSE,1
STUDY001,EG,STUDY001-SUBJ0037,6,HR,Heart Rate,74.2,beats/min,74.2,74.2,beats/min,Y,CHEST,SUPINE,12-LEAD ECG,,,NORMAL,BASELINE,2,2025-03-25,1,PREDOSE,1
STUDY001,EG,STUDY001-SUBJ0037,7,QT,QT Interval,396.0,msec,396.0,396.0,msec,Y,CHEST,SUPINE,12-LEAD ECG,,NOT DONE,NORMAL,BASELINE,2,2025-03-25,1,PREDOSE,1
STUDY001,EG,STUDY001-SUBJ0037,8,QTC,QTc Interval,401.7,msec,401.7,401.7,msec,Y,CHEST,SUPINE,12-LEAD ECG,,,NORMAL,BASELINE,2,2025-03-25,1,PREDOSE,1
STUDY001,EG,STUDY001-SUBJ0037,9,PR,PR Interval,151.8,msec,151.8,151.8,msec,Y,CHEST,SUPINE,12-LEAD ECG,,NOT DONE,NORMAL,BASELINE,2,2025-03-25,1,PREDOSE,1
STUDY001,EG,STUDY001-SUBJ0037,10,QRS,QRS Duration,81.2,msec,81.2,81.2,msec,Y,CHEST,SUPINE,12-LEAD ECG,,,NORMAL,BASELINE,2,2025-03-25,1,PREDOSE,1
STUDY001,EG,STUDY001-SUBJ0037,11,HR,Heart Rate,76.9,beats/min,76.9,76.9,beats/min,,CHEST,SUPINE,12-LEAD ECG,,,NORMAL,WEEK 4,3,2025-04-21,28,PREDOSE,1
STUDY001,EG,STUDY001-SUBJ0037,12,QT,QT Interval,403.5,msec,403.5,403.5,msec,,CHEST,SUPINE,12-LEAD ECG,,,NORMAL,WEEK 4,3,2025-04-21,28,PREDOSE,1
STUDY001,EG,STUDY001-SUBJ0037,13,QTC,QTc Interval,398.1,msec,398.1,398.1,msec,,CHEST,SUPINE,12-LEAD ECG,,,NORMAL,WEEK 4,3,2025-04-21,28,PREDOSE,1
STUDY001,EG,STUDY001-SUBJ0037,14,PR,PR Interval,156.9,msec,156.9,156.9,msec,,CHEST,SUPINE,12-LEAD ECG,,,NORMAL,WEEK 4,3,2025-04-21,28,PREDOSE,1
STUDY001,EG,STUDY001-SUBJ0037,15,QRS,QRS Duration,87.4,msec,87.4,87.4,msec,,CHEST,SUPINE,12-LEAD ECG,,,NORMAL,WEEK 4,3,2025-04-21,28,PREDOSE,1
STUDY001,EG,STUDY001-SUBJ0037,16,HR,Heart Rate,79.8,beats/min,79.8,79.8,beats/min,,CHEST,SUPINE,12-LEAD ECG,TECHNICAL FAILURE,,NORMAL,WEEK 12,4,2025-06-16,84,PREDOSE,1
STUDY001,EG,STUDY001-SUBJ0037,17,QT,QT Interval,394.3,msec,394.3,394.3,msec,,CHEST,SUPINE,12-LEAD ECG,,,NORMAL,WEEK 12,4,2025-06-16,84,PREDOSE,1
STUDY001,EG,STUDY001-SUBJ0037,18,QTC,QTc Interval,396.5,msec,396.5,396.5,msec,,CHEST,SUPINE,12-LEAD ECG,,,NORMAL,WEEK 12,4,2025-06-16,84,PREDOSE,1
STUDY001,EG,STUDY001-SUBJ0037,19,PR,PR Interval,154.1,msec,154.1,154.1,msec,,CHEST,SUPINE,12-LEAD ECG,,,NORMAL,WEEK 12,4,2025-06-16,84,PREDOSE,1
STUDY001,EG,STUDY001-SUBJ0037,20,QRS,QRS Duration,80.7,msec,80.7,80.7,msec,,CHEST,SUPINE,12-LEAD ECG,,,NORMAL,WEEK 12,4,2025-06-16,84,PREDOSE,1
STUDY001,EG,STUDY001-SUBJ0037,21,HR,Heart Rate,78.0,beats/min,78.0,78.0,beats/min,,CHEST,SUPINE,12-LEAD ECG,,,NORMAL,END OF TREATMENT,5,2025-08-11,140,PREDOSE,1
STUDY001,EG,STUDY001-SUBJ0037,22,QT,QT Interval,394.9,msec,394.9,394.9,msec,,CHEST,SUPINE,12-LEAD ECG,,NOT DONE,NORMAL,END OF TREATMENT,5,2025-08-11,140,PREDOSE,1
STUDY001,EG,STUDY001-SUBJ0037,23,QTC,QTc Interval,396.0,msec,396.0,396.0,msec,,CHEST,SUPINE,12-LEAD ECG,TECHNICAL FAILURE,,NORMAL,END OF TREATMENT,5,2025-08-11,140,PREDOSE,1
STUDY001,EG,STUDY001-SUBJ0037,24,PR,PR Interval,154.0,msec,154.0,154.0,msec,,CHEST,SUPINE,12-LEAD ECG,,,NORMAL,END OF TREATMENT,5,2025-08-11,140,PREDOSE,1
STUDY001,EG,STUDY001-SUBJ0037,25,QRS,QRS Duration,80.7,msec,80.7,80.7,msec,,CHEST,SUPINE,12-LEAD ECG,,,NORMAL,END OF TREATMENT,5,2025-08-11,140,PREDOSE,1
STUDY001,EG,STUDY001-SUBJ0038,1,HR,Heart Rate,76.1,beats/min,76.1,76.1,beats/min,,CHEST,SUPINE,12-LEAD ECG,,,NORMAL,SCREENING,1,2025-01-06,-14,PREDOSE,1
STUDY001,EG,STUDY001-SUBJ0038,2,QT,QT Interval,403.5,msec,403.5,403.5,msec,,CHEST,SUPINE,12-LEAD ECG,,,NORMAL,SCREENING,1,2025-01-06,-14,PREDOSE,1
STUDY001,EG,STUDY001-SUBJ0038,3,QTC,QTc Interval,388.8,msec,388.8,388.8,msec,,CHEST,SUPINE,12-LEAD ECG,,,NORMAL,SCREENING,1,2025-01-06,-14,PREDOSE,1
STUDY001,EG,STUDY001-SUBJ0038,4,PR,PR Interval,180.0,msec,180.0,180.0,msec,,CHEST,SUPINE,12-LEAD ECG,,,NORMAL,SCREENING,1,2025-01-06,-14,PREDOSE,1
STUDY001,EG,STUDY001-SUBJ0038,5,QRS,QRS Duration,92.4,msec,92.4,92.4,msec,,CHEST,SUPINE,12-LEAD ECG,,,NORMAL,SCREENING,1,2025-01-06,-14,PREDOSE,1
STUDY001,EG,STUDY001-SUBJ0038,6,HR,Heart Rate,70.9,beats/min,70.9,70.9,beats/min,Y,CHEST,SUPINE,12-LEAD ECG,,,NORMAL,BASELINE,2,2025-01-20,1,PREDOSE,1
STUDY001,EG,STUDY001-SUBJ0038,7,QT,QT Interval,397.0,msec,397.0,397.0,msec,Y,CHEST,SUPINE,12-LEAD ECG,,,NORMAL,BASELINE,2,2025-01-20,1,PREDOSE,1
STUDY001,EG,STUDY001-SUBJ0038,8,QTC,QTc Interval,395.3,msec,395.3,395.3,msec,Y,CHEST,SUPINE,12-LEAD ECG,,,NORMAL,BASELINE,2,2025-01-20,1,PREDOSE,1
STUDY001,EG,STUDY001-SUBJ0038,9,PR,PR Interval,173.4,msec,173.4,173.4,msec,Y,CHEST,SUPINE,12-LEAD ECG,,,NORMAL,BASELINE,2,2025-01-20,1,PREDOSE,1
STUDY001,EG,STUDY001-SUBJ0038,10,QRS,QRS Duration,98.9,msec,98.9,98.9,msec,Y,CHEST,SUPINE,12-LEAD ECG,,,NORMAL,BASELINE,2,2025-01-20,1,PREDOSE,1
STUDY001,EG,STUDY001-SUBJ0038,11,HR,Heart Rate,71.4,beats/min,71.4,71.4,beats/min,,CHEST,SUPINE,12-LEAD ECG,,,NORMAL,WEEK 4,3,2025-02-16,28,PREDOSE,1
STUDY001,EG,STUDY001-SUBJ0038,12,QT,QT Interval,401.6,msec,401.6,401.6,msec,,CHEST,SUPINE,12-LEAD ECG,,,NORMAL,WEEK 4,3,2025-02-16,28,PREDOSE,1
STUDY001,EG,STUDY001-SUBJ0038,13,QTC,QTc Interval,392.3,msec,392.3,392.3,msec,,CHEST,SUPINE,12-LEAD ECG,,,NORMAL,WEEK 4,3,2025-02-16,28,PREDOSE,1
STUDY001,EG,STUDY001-SUBJ0038,14,PR,PR Interval,177.9,msec,177.9,177.9,msec,,CHEST,SUPINE,12-LEAD ECG,,,NORMAL,WEEK 4,3,2025-02-16,28,PREDOSE,1
STUDY001,EG,STUDY001-SUBJ0038,15,QRS,QRS Duration,100.5,msec,100.5,100.5,msec,,CHEST,SUPINE,12-LEAD ECG,,,NORMAL,WEEK 4,3,2025-02-16,28,PREDOSE,1
STUDY001,EG,STUDY001-SUBJ0038,16,HR,Heart Rate,75.5,beats/min,75.5,75.5,beats/min,,CHEST,SUPINE,12-LEAD ECG,,,NORMAL,WEEK 12,4,2025-04-13,84,PREDOSE,1
STUDY001,EG,STUDY001-SUBJ0038,17,QT,QT Interval,395.1,msec,395.1,395.1,msec,,CHEST,SUPINE,12-LEAD ECG,,,NORMAL,WEEK 12,4,2025-04-13,84,PREDOSE,1
STUDY001,EG,STUDY001-SUBJ0038,18,QTC,QTc Interval,388.2,msec,388.2,388.2,msec,,CHEST,SUPINE,12-LEAD ECG,,,NORMAL,WEEK 12,4,2025-04-13,84,PREDOSE,1
STUDY001,EG,STUDY001-SUBJ0038,19,PR,PR Interval,182.0,msec,182.0,182.0,msec,,CHEST,SUPINE,12-LEAD ECG,,,NORMAL,WEEK 12,4,2025-04-13,84,PREDOSE,1
STUDY001,EG,STUDY001-SUBJ0038,20,QRS,QRS Duration,93.5,msec,93.5,93.5,msec,,CHEST,SUPINE,12-LEAD ECG,,,NORMAL,WEEK 12,4,2025-04-13,84,PREDOSE,1
STUDY001,EG,STUDY001-SUBJ0038,21,HR,Heart Rate,75.8,beats/min,75.8,75.8,beats/min,,CHEST,SUPINE,12-LEAD ECG,,,NORMAL,END OF TREATMENT,5,2025-06-08,140,PREDOSE,1
STUDY001,EG,STUDY001-SUBJ0038,22,QT,QT Interval,402.6,msec,402.6,402.6,msec,,CHEST,SUPINE,12-LEAD ECG,,NOT DONE,NORMAL,END OF TREATMENT,5,2025-06-08,140,PREDOSE,1
STUDY001,EG,STUDY001-SUBJ0038,23,QTC,QTc Interval,392.4,msec,392.4,392.4,msec,,CHEST,SUPINE,12-LEAD ECG,,,NORMAL,END OF TREATMENT,5,2025-06-08,140,PREDOSE,1
STUDY001,EG,STUDY001-SUBJ0038,24,PR,PR Interval,181.3,msec,181.3,181.3,msec,,CHEST,SUPINE,12-LEAD ECG,,,NORMAL,END OF TREATMENT,5,2025-06-08,140,PREDOSE,1
STUDY001,EG,STUDY001-SUBJ0038,25,QRS,QRS Duration,99.2,msec,99.2,99.2,msec,,CHEST,SUPINE,12-LEAD ECG,,,NORMAL,END OF TREATMENT,5,2025-06-08,140,PREDOSE,1
STUDY001,EG,STUDY001-SUBJ0039,1,HR,Heart Rate,61.7,beats/min,61.7,61.7,beats/min,,CHEST,SUPINE,12-LEAD ECG,,,NORMAL,SCREENING,1,2025-08-08,-14,PREDOSE,1
STUDY001,EG,STUDY001-SUBJ0039,2,QT,QT Interval,388.8,msec,388.8,388.8,msec,,CHEST,SUPINE,12-LEAD ECG,,,NORMAL,SCREENING,1,2025-08-08,-14,PREDOSE,1
STUDY001,EG,STUDY001-SUBJ0039,3,QTC,QTc Interval,407.6,msec,407.6,407.6,msec,,CHEST,SUPINE,12-LEAD ECG,,,NORMAL,SCREENING,1,2025-08-08,-14,PREDOSE,1
STUDY001,EG,STUDY001-SUBJ0039,4,PR,PR Interval,175.9,msec,175.9,175.9,msec,,CHEST,SUPINE,12-LEAD ECG,,,NORMAL,SCREENING,1,2025-08-08,-14,PREDOSE,1
STUDY001,EG,STUDY001-SUBJ0039,5,QRS,QRS Duration,101.5,msec,101.5,101.5,msec,,CHEST,SUPINE,12-LEAD ECG,TECHNICAL FAILURE,,NORMAL,SCREENING,1,2025-08-08,-14,PREDOSE,1
STUDY001,EG,STUDY001-SUBJ0039,6,HR,Heart Rate,63.9,beats/min,63.9,63.9,beats/min,Y,CHEST,SUPINE,12-LEAD ECG,,,NORMAL,BASELINE,2,2025-08-22,1,PREDOSE,1
STUDY001,EG,STUDY001-SUBJ0039,7,QT,QT Interval,389.7,msec,389.7,389.7,msec,Y,CHEST,SUPINE,12-LEAD ECG,,,NORMAL,BASELINE,2,2025-08-22,1,PREDOSE,1
STUDY001,EG,STUDY001-SUBJ0039,8,QTC,QTc Interval,406.3,msec,406.3,406.3,msec,Y,CHEST,SUPINE,12-LEAD ECG,,,NORMAL,BASELINE,2,2025-08-22,1,PREDOSE,1
STUDY001,EG,STUDY001-SUBJ0039,9,PR,PR Interval,174.2,msec,174.2,174.2,msec,Y,CHEST,SUPINE,12-LEAD ECG,,,NORMAL,BASELINE,2,2025-08-22,1,PREDOSE,1
STUDY001,EG,STUDY001-SUBJ0039,10,QRS,QRS Duration,99.7,msec,99.7,99.7,msec,Y,CHEST,SUPINE,12-LEAD ECG,,,NORMAL,BASELINE,2,2025-08-22,1,PREDOSE,1
STUDY001,EG,STUDY001-SUBJ0039,11,HR,Heart Rate,62.4,beats/min,62.4,62.4,beats/min,,CHEST,SUPINE,12-LEAD ECG,,,NORMAL,WEEK 4,3,2025-09-18,28,PREDOSE,1
STUDY001,EG,STUDY001-SUBJ0039,12,QT,QT Interval,385.2,msec,385.2,385.2,msec,,CHEST,SUPINE,12-LEAD ECG,,,NORMAL,WEEK 4,3,2025-09-18,28,PREDOSE,1
STUDY001,EG,STUDY001-SUBJ0039,13,QTC,QTc Interval,412.3,msec,412.3,412.3,msec,,CHEST,SUPINE,12-LEAD ECG,,,NORMAL,WEEK 4,3,2025-09-18,28,PREDOSE,1
STUDY001,EG,STUDY001-SUBJ0039,14,PR,PR Interval,173.3,msec,173.3,173.3,msec,,CHEST,SUPINE,12-LEAD ECG,,NOT DONE,NORMAL,WEEK 4,3,2025-09-18,28,PREDOSE,1
STUDY001,EG,STUDY001-SUBJ0039,15,QRS,QRS Duration,102.3,msec,102.3,102.3,msec,,CHEST,SUPINE,12-LEAD ECG,,,NORMAL,WEEK 4,3,2025-09-18,28,PREDOSE,1
STUDY001,EG,STUDY001-SUBJ0039,16,HR,Heart Rate,66.2,beats/min,66.2,66.2,beats/min,,CHEST,SUPINE,12-LEAD ECG,,,NORMAL,WEEK 12,4,2025-11-13,84,PREDOSE,1
STUDY001,EG,STUDY001-SUBJ0039,17,QT,QT Interval,389.5,msec,389.5,389.5,msec,,CHEST,SUPINE,12-LEAD ECG,,,NORMAL,WEEK 12,4,2025-11-13,84,PREDOSE,1
STUDY001,EG,STUDY001-SUBJ0039,18,QTC,QTc Interval,405.8,msec,405.8,405.8,msec,,CHEST,SUPINE,12-LEAD ECG,,,NORMAL,WEEK 12,4,2025-11-13,84,PREDOSE,1
STUDY001,EG,STUDY001-SUBJ0039,19,PR,PR Interval,170.8,msec,170.8,170.8,msec,,CHEST,SUPINE,12-LEAD ECG,,NOT DONE,NORMAL,WEEK 12,4,2025-11-13,84,PREDOSE,1
STUDY001,EG,STUDY001-SUBJ0039,20,QRS,QRS Duration,104.0,msec,104.0,104.0,msec,,CHEST,SUPINE,12-LEAD ECG,,,NORMAL,WEEK 12,4,2025-11-13,84,PREDOSE,1
STUDY001,EG,STUDY001-SUBJ0040,1,HR,Heart Rate,60.4,beats/min,60.4,60.4,beats/min,,CHEST,SUPINE,12-LEAD ECG,,,NORMAL,SCREENING,1,2025-08-13,-14,PREDOSE,1
STUDY001,EG,STUDY001-SUBJ0040,2,QT,QT Interval,405.7,msec,405.7,405.7,msec,,CHEST,SUPINE,12-LEAD ECG,,,NORMAL,SCREENING,1,2025-08-13,-14,PREDOSE,1
STUDY001,EG,STUDY001-SUBJ0040,3,QTC,QTc Interval,403.0,msec,403.0,403.0,msec,,CHEST,SUPINE,12-LEAD ECG,,,NORMAL,SCREENING,1,2025-08-13,-14,PREDOSE,1
STUDY001,EG,STUDY001-SUBJ0040,4,PR,PR Interval,168.0,msec,168.0,168.0,msec,,CHEST,SUPINE,12-LEAD ECG,,,NORMAL,SCREENING,1,2025-08-13,-14,PREDOSE,1
STUDY001,EG,STUDY001-SUBJ0040,5,QRS,QRS Duration,95.6,msec,95.6,95.6,msec,,CHEST,SUPINE,12-LEAD ECG,,,NORMAL,SCREENING,1,2025-08-13,-14,PREDOSE,1
STUDY001,EG,STUDY001-SUBJ0040,6,HR,Heart Rate,60.4,beats/min,60.4,60.4,beats/min,Y,CHEST,SUPINE,12-LEAD ECG,,,NORMAL,BASELINE,2,2025-08-27,1,PREDOSE,1
STUDY001,EG,STUDY001-SUBJ0040,7,QT,QT Interval,396.7,msec,396.7,396.7,msec,Y,CHEST,SUPINE,12-LEAD ECG,,,NORMAL,BASELINE,2,2025-08-27,1,PREDOSE,1
STUDY001,EG,STUDY001-SUBJ0040,8,QTC,QTc Interval,400.1,msec,400.1,400.1,msec,Y,CHEST,SUPINE,12-LEAD ECG,,,NORMAL,BASELINE,2,2025-08-27,1,PREDOSE,1
STUDY001,EG,STUDY001-SUBJ0040,9,PR,PR Interval,168.1,msec,168.1,168.1,msec,Y,CHEST,SUPINE,12-LEAD ECG,,,NORMAL,BASELINE,2,2025-08-27,1,PREDOSE,1
STUDY001,EG,STUDY001-SUBJ0040,10,QRS,QRS Duration,88.8,msec,88.8,88.8,msec,Y,CHEST,SUPINE,12-LEAD ECG,,,NORMAL,BASELINE,2,2025-08-27,1,PREDOSE,1
STUDY001,EG,STUDY001-SUBJ0040,11,HR,Heart Rate,65.1,beats/min,65.1,65.1,beats/min,,CHEST,SUPINE,12-LEAD ECG,,,NORMAL,WEEK 4,3,2025-09-23,28,PREDOSE,1
STUDY001,EG,STUDY001-SUBJ0040,12,QT,QT Interval,395.9,msec,395.9,395.9,msec,,CHEST,SUPINE,12-LEAD ECG,,,NORMAL,WEEK 4,3,2025-09-23,28,PREDOSE,1
STUDY001,EG,STUDY001-SUBJ0040,13,QTC,QTc Interval,406.3,msec,406.3,406.3,msec,,CHEST,SUPINE,12-LEAD ECG,,,NORMAL,WEEK 4,3,2025-09-23,28,PREDOSE,1
STUDY001,EG,STUDY001-SUBJ0040,14,PR,PR Interval,163.6,msec,163.6,163.6,msec,,CHEST,SUPINE,12-LEAD ECG,,,NORMAL,WEEK 4,3,2025-09-23,28,PREDOSE,1
STUDY001,EG,STUDY001-SUBJ0040,15,QRS,QRS Duration,89.5,msec,89.5,89.5,msec,,CHEST,SUPINE,12-LEAD ECG,,,NORMAL,WEEK 4,3,2025-09-23,28,PREDOSE,1
STUDY001,EG,STUDY001-SUBJ0040,16,HR,Heart Rate,68.7,beats/min,68.7,68.7,beats/min,,CHEST,SUPINE,12-LEAD ECG,,,NORMAL,WEEK 12,4,2025-11-18,84,PREDOSE,1
STUDY001,EG,STUDY001-SUBJ0040,17,QT,QT Interval,400.8,msec,400.8,400.8,msec,,CHEST,SUPINE,12-LEAD ECG,,,NORMAL,WEEK 12,4,2025-11-18,84,PREDOSE,1
STUDY001,EG,STUDY001-SUBJ0040,18,QTC,QTc Interval,406.9,msec,406.9,406.9,msec,,CHEST,SUPINE,12-LEAD ECG,,,NORMAL,WEEK 12,4,2025-11-18,84,PREDOSE,1
STUDY001,EG,STUDY001-SUBJ0040,19,PR,PR Interval,163.4,msec,163.4,163.4,msec,,CHEST,SUPINE,12-LEAD ECG,TECHNICAL FAILURE,,NORMAL,WEEK 12,4,2025-11-18,84,PREDOSE,1
STUDY001,EG,STUDY001-SUBJ0040,20,QRS,QRS Duration,88.6,msec,88.6,88.6,msec,,CHEST,SUPINE,12-LEAD ECG,,,NORMAL,WEEK 12,4,2025-11-18,84,PREDOSE,1
STUDY001,EG,STUDY001-SUBJ0041,1,HR,Heart Rate,73.9,beats/min,73.9,73.9,beats/min,,CHEST,SUPINE,12-LEAD ECG,,,NORMAL,SCREENING,1,2025-04-23,-14,PREDOSE,1
STUDY001,EG,STUDY001-SUBJ0041,2,QT,QT Interval,407.2,msec,407.2,407.2,msec,,CHEST,SUPINE,12-LEAD ECG,,,NORMAL,SCREENING,1,2025-04-23,-14,PREDOSE,1
STUDY001,EG,STUDY001-SUBJ0041,3,QTC,QTc Interval,433.3,msec,433.3,433.3,msec,,CHEST,SUPINE,12-LEAD ECG,,,NORMAL,SCREENING,1,2025-04-23,-14,PREDOSE,1
STUDY001,EG,STUDY001-SUBJ0041,4,PR,PR Interval,165.1,msec,165.1,165.1,msec,,CHEST,SUPINE,12-LEAD ECG,,,NORMAL,SCREENING,1,2025-04-23,-14,PREDOSE,1
STUDY001,EG,STUDY001-SUBJ0041,5,QRS,QRS Duration,84.2,msec,84.2,84.2,msec,,CHEST,SUPINE,12-LEAD ECG,,,NORMAL,SCREENING,1,2025-04-23,-14,PREDOSE,1
STUDY001,EG,STUDY001-SUBJ0041,6,HR,Heart Rate,80.8,beats/min,80.8,80.8,beats/min,Y,CHEST,SUPINE,12-LEAD ECG,,,NORMAL,BASELINE,2,2025-05-07,1,PREDOSE,1
STUDY001,EG,STUDY001-SUBJ0041,7,QT,QT Interval,404.5,msec,404.5,404.5,msec,Y,CHEST,SUPINE,12-LEAD ECG,,,NORMAL,BASELINE,2,2025-05-07,1,PREDOSE,1
STUDY001,EG,STUDY001-SUBJ0041,8,QTC,QTc Interval,432.4,msec,432.4,432.4,msec,Y,CHEST,SUPINE,12-LEAD ECG,,,NORMAL,BASELINE,2,2025-05-07,1,PREDOSE,1
STUDY001,EG,STUDY001-SUBJ0041,9,PR,PR Interval,157.2,msec,157.2,157.2,msec,Y,CHEST,SUPINE,12-LEAD ECG,TECHNICAL FAILURE,,NORMAL,BASELINE,2,2025-05-07,1,PREDOSE,1
STUDY001,EG,STUDY001-SUBJ0041,10,QRS,QRS Duration,88.2,msec,88.2,88.2,msec,Y,CHEST,SUPINE,12-LEAD ECG,,,NORMAL,BASELINE,2,2025-05-07,1,PREDOSE,1
STUDY001,EG,STUDY001-SUBJ0041,11,HR,Heart Rate,76.5,beats/min,76.5,76.5,beats/min,,CHEST,SUPINE,12-LEAD ECG,,,NORMAL,WEEK 4,3,2025-06-03,28,PREDOSE,1
STUDY001,EG,STUDY001-SUBJ0041,12,QT,QT Interval,406.3,msec,406.3,406.3,msec,,CHEST,SUPINE,12-LEAD ECG,,,NORMAL,WEEK 4,3,2025-06-03,28,PREDOSE,1
STUDY001,EG,STUDY001-SUBJ0041,13,QTC,QTc Interval,439.5,msec,439.5,439.5,msec,,CHEST,SUPINE,12-LEAD ECG,,,NORMAL,WEEK 4,3,2025-06-03,28,PREDOSE,1
STUDY001,EG,STUDY001-SUBJ0041,14,PR,PR Interval,161.7,msec,161.7,161.7,msec,,CHEST,SUPINE,12-LEAD ECG,TECHNICAL FAILURE,,NORMAL,WEEK 4,3,2025-06-03,28,PREDOSE,1
STUDY001,EG,STUDY001-SUBJ0041,15,QRS,QRS Duration,84.5,msec,84.5,84.5,msec,,CHEST,SUPINE,12-LEAD ECG,,,NORMAL,WEEK 4,3,2025-06-03,28,PREDOSE,1
STUDY001,EG,STUDY001-SUBJ0041,16,HR,Heart Rate,74.0,beats/min,74.0,74.0,beats/min,,CHEST,SUPINE,12-LEAD ECG,,,NORMAL,WEEK 12,4,2025-07-29,84,PREDOSE,1
STUDY001,EG,STUDY001-SUBJ0041,17,QT,QT Interval,409.3,msec,409.3,409.3,msec,,CHEST,SUPINE,12-LEAD ECG,,,NORMAL,WEEK 12,4,2025-07-29,84,PREDOSE,1
STUDY001,EG,STUDY001-SUBJ0041,18,QTC,QTc Interval,436.2,msec,436.2,436.2,msec,,CHEST,SUPINE,12-LEAD ECG,,,NORMAL,WEEK 12,4,2025-07-29,84,PREDOSE,1
STUDY001,EG,STUDY001-SUBJ0041,19,PR,PR Interval,164.4,msec,164.4,164.4,msec,,CHEST,SUPINE,12-LEAD ECG,,,NORMAL,WEEK 12,4,2025-07-29,84,PREDOSE,1
STUDY001,EG,STUDY001-SUBJ0041,20,QRS,QRS Duration,86.2,msec,86.2,86.2,msec,,CHEST,SUPINE,12-LEAD ECG,,,NORMAL,WEEK 12,4,2025-07-29,84,PREDOSE,1
STUDY001,EG,STUDY001-SUBJ0041,21,HR,Heart Rate,72.1,beats/min,72.1,72.1,beats/min,,CHEST,SUPINE,12-LEAD ECG,,,NORMAL,END OF TREATMENT,5,2025-09-23,140,PREDOSE,1
STUDY001,EG,STUDY001-SUBJ0041,22,QT,QT Interval,410.2,msec,410.2,410.2,msec,,CHEST,SUPINE,12-LEAD ECG,,,NORMAL,END OF TREATMENT,5,2025-09-23,140,PREDOSE,1
STUDY001,EG,STUDY001-SUBJ0041,23,QTC,QTc Interval,433.4,msec,433.4,433.4,msec,,CHEST,SUPINE,12-LEAD ECG,,,NORMAL,END OF TREATMENT,5,2025-09-23,140,PREDOSE,1
STUDY001,EG,STUDY001-SUBJ0041,24,PR,PR Interval,157.7,msec,157.7,157.7,msec,,CHEST,SUPINE,12-LEAD ECG,,,NORMAL,END OF TREATMENT,5,2025-09-23,140,PREDOSE,1
STUDY001,EG,STUDY001-SUBJ0041,25,QRS,QRS Duration,81.5,msec,81.5,81.5,msec,,CHEST,SUPINE,12-LEAD ECG,,,NORMAL,END OF TREATMENT,5,2025-09-23,140,PREDOSE,1
STUDY001,EG,STUDY001-SUBJ0042,1,HR,Heart Rate,65.8,beats/min,65.8,65.8,beats/min,,CHEST,SUPINE,12-LEAD ECG,,,NORMAL,SCREENING,1,2025-05-30,-14,PREDOSE,1
STUDY001,EG,STUDY001-SUBJ0042,2,QT,QT Interval,397.0,msec,397.0,397.0,msec,,CHEST,SUPINE,12-LEAD ECG,,,NORMAL,SCREENING,1,2025-05-30,-14,PREDOSE,1
STUDY001,EG,STUDY001-SUBJ0042,3,QTC,QTc Interval,424.1,msec,424.1,424.1,msec,,CHEST,SUPINE,12-LEAD ECG,,,NORMAL,SCREENING,1,2025-05-30,-14,PREDOSE,1
STUDY001,EG,STUDY001-SUBJ0042,4,PR,PR Interval,149.0,msec,149.0,149.0,msec,,CHEST,SUPINE,12-LEAD ECG,,,NORMAL,SCREENING,1,2025-05-30,-14,PREDOSE,1
STUDY001,EG,STUDY001-SUBJ0042,5,QRS,QRS Duration,87.3,msec,87.3,87.3,msec,,CHEST,SUPINE,12-LEAD ECG,,,NORMAL,SCREENING,1,2025-05-30,-14,PREDOSE,1
STUDY001,EG,STUDY001-SUBJ0042,6,HR,Heart Rate,65.8,beats/min,65.8,65.8,beats/min,Y,CHEST,SUPINE,12-LEAD ECG,,,NORMAL,BASELINE,2,2025-06-13,1,PREDOSE,1
STUDY001,EG,STUDY001-SUBJ0042,7,QT,QT Interval,399.6,msec,399.6,399.6,msec,Y,CHEST,SUPINE,12-LEAD ECG,,,NORMAL,BASELINE,2,2025-06-13,1,PREDOSE,1
STUDY001,EG,STUDY001-SUBJ0042,8,QTC,QTc Interval,430.6,msec,430.6,430.6,msec,Y,CHEST,SUPINE,12-LEAD ECG,,,NORMAL,BASELINE,2,2025-06-13,1,PREDOSE,1
STUDY001,EG,STUDY001-SUBJ0042,9,PR,PR Interval,149.8,msec,149.8,149.8,msec,Y,CHEST,SUPINE,12-LEAD ECG,,,NORMAL,BASELINE,2,2025-06-13,1,PREDOSE,1
STUDY001,EG,STUDY001-SUBJ0042,10,QRS,QRS Duration,84.2,msec,84.2,84.2,msec,Y,CHEST,SUPINE,12-LEAD ECG,,,NORMAL,BASELINE,2,2025-06-13,1,PREDOSE,1
STUDY001,EG,STUDY001-SUBJ0042,11,HR,Heart Rate,58.2,beats/min,58.2,58.2,beats/min,,CHEST,SUPINE,12-LEAD ECG,,,LOW,WEEK 4,3,2025-07-10,28,PREDOSE,1
STUDY001,EG,STUDY001-SUBJ0042,12,QT,QT Interval,390.8,msec,390.8,390.8,msec,,CHEST,SUPINE,12-LEAD ECG,,,NORMAL,WEEK 4,3,2025-07-10,28,PREDOSE,1
STUDY001,EG,STUDY001-SUBJ0042,13,QTC,QTc Interval,428.4,msec,428.4,428.4,msec,,CHEST,SUPINE,12-LEAD ECG,,,NORMAL,WEEK 4,3,2025-07-10,28,PREDOSE,1
STUDY001,EG,STUDY001-SUBJ0042,14,PR,PR Interval,145.4,msec,145.4,145.4,msec,,CHEST,SUPINE,12-LEAD ECG,,,NORMAL,WEEK 4,3,2025-07-10,28,PREDOSE,1
STUDY001,EG,STUDY001-SUBJ0042,15,QRS,QRS Duration,89.3,msec,89.3,89.3,msec,,CHEST,SUPINE,12-LEAD ECG,,,NORMAL,WEEK 4,3,2025-07-10,28,PREDOSE,1
STUDY001,EG,STUDY001-SUBJ0042,16,HR,Heart Rate,62.7,beats/min,62.7,62.7,beats/min,,CHEST,SUPINE,12-LEAD ECG,,,NORMAL,WEEK 12,4,2025-09-04,84,PREDOSE,1
STUDY001,EG,STUDY001-SUBJ0042,17,QT,QT Interval,399.6,msec,399.6,399.6,msec,,CHEST,SUPINE,12-LEAD ECG,,,NORMAL,WEEK 12,4,2025-09-04,84,PREDOSE,1
STUDY001,EG,STUDY001-SUBJ0042,18,QTC,QTc Interval,427.3,msec,427.3,427.3,msec,,CHEST,SUPINE,12-LEAD ECG,,,NORMAL,WEEK 12,4,2025-09-04,84,PREDOSE,1
STUDY001,EG,STUDY001-SUBJ0042,19,PR,PR Interval,143.0,msec,143.0,143.0,msec,,CHEST,SUPINE,12-LEAD ECG,,,NORMAL,WEEK 12,4,2025-09-04,84,PREDOSE,1
STUDY001,EG,STUDY001-SUBJ0042,20,QRS,QRS Duration,86.9,msec,86.9,86.9,msec,,CHEST,SUPINE,12-LEAD ECG,,,NORMAL,WEEK 12,4,2025-09-04,84,PREDOSE,1
STUDY001,EG,STUDY001-SUBJ0042,21,HR,Heart Rate,60.5,beats/min,60.5,60.5,beats/min,,CHEST,SUPINE,12-LEAD ECG,,NOT DONE,NORMAL,END OF TREATMENT,5,2025-10-30,140,PREDOSE,1
STUDY001,EG,STUDY001-SUBJ0042,22,QT,QT Interval,397.7,msec,397.7,397.7,msec,,CHEST,SUPINE,12-LEAD ECG,,,NORMAL,END OF TREATMENT,5,2025-10-30,140,PREDOSE,1
STUDY001,EG,STUDY001-SUBJ0042,23,QTC,QTc Interval,426.3,msec,426.3,426.3,msec,,CHEST,SUPINE,12-LEAD ECG,,,NORMAL,END OF TREATMENT,5,2025-10-30,140,PREDOSE,1
STUDY001,EG,STUDY001-SUBJ0042,24,PR,PR Interval,150.4,msec,150.4,150.4,msec,,CHEST,SUPINE,12-LEAD ECG,,,NORMAL,END OF TREATMENT,5,2025-10-30,140,PREDOSE,1
STUDY001,EG,STUDY001-SUBJ0042,25,QRS,QRS Duration,84.7,msec,84.7,84.7,msec,,CHEST,SUPINE,12-LEAD ECG,,,NORMAL,END OF TREATMENT,5,2025-10-30,140,PREDOSE,1
STUDY001,EG,STUDY001-SUBJ0043,1,HR,Heart Rate,58.0,beats/min,58.0,58.0,beats/min,,CHEST,SUPINE,12-LEAD ECG,,,LOW,SCREENING,1,2025-01-20,-14,PREDOSE,1
STUDY001,EG,STUDY001-SUBJ0043,2,QT,QT Interval,399.8,msec,399.8,399.8,msec,,CHEST,SUPINE,12-LEAD ECG,,,NORMAL,SCREENING,1,2025-01-20,-14,PREDOSE,1
STUDY001,EG,STUDY001-SUBJ0043,3,QTC,QTc Interval,425.5,msec,425.5,425.5,msec,,CHEST,SUPINE,12-LEAD ECG,,,NORMAL,SCREENING,1,2025-01-20,-14,PREDOSE,1
STUDY001,EG,STUDY001-SUBJ0043,4,PR,PR Interval,159.9,msec,159.9,159.9,msec,,CHEST,SUPINE,12-LEAD ECG,,,NORMAL,SCREENING,1,2025-01-20,-14,PREDOSE,1
STUDY001,EG,STUDY001-SUBJ0043,5,QRS,QRS Duration,89.9,msec,89.9,89.9,msec,,CHEST,SUPINE,12-LEAD ECG,,,NORMAL,SCREENING,1,2025-01-20,-14,PREDOSE,1
STUDY001,EG,STUDY001-SUBJ0043,6,HR,Heart Rate,61.1,beats/min,61.1,61.1,beats/min,Y,CHEST,SUPINE,12-LEAD ECG,,,NORMAL,BASELINE,2,2025-02-03,1,PREDOSE,1
STUDY001,EG,STUDY001-SUBJ0043,7,QT,QT Interval,399.5,msec,399.5,399.5,msec,Y,CHEST,SUPINE,12-LEAD ECG,,,NORMAL,BASELINE,2,2025-02-03,1,PREDOSE,1
STUDY001,EG,STUDY001-SUBJ0043,8,QTC,QTc Interval,421.4,msec,421.4,421.4,msec,Y,CHEST,SUPINE,12-LEAD ECG,,,NORMAL,BASELINE,2,2025-02-03,1,PREDOSE,1
STUDY001,EG,STUDY001-SUBJ0043,9,PR,PR Interval,161.2,msec,161.2,161.2,msec,Y,CHEST,SUPINE,12-LEAD ECG,,,NORMAL,BASELINE,2,2025-02-03,1,PREDOSE,1
STUDY001,EG,STUDY001-SUBJ0043,10,QRS,QRS Duration,95.4,msec,95.4,95.4,msec,Y,CHEST,SUPINE,12-LEAD ECG,,,NORMAL,BASELINE,2,2025-02-03,1,PREDOSE,1
STUDY001,EG,STUDY001-SUBJ0043,11,HR,Heart Rate,59.4,beats/min,59.4,59.4,beats/min,,CHEST,SUPINE,12-LEAD ECG,,,LOW,WEEK 4,3,2025-03-02,28,PREDOSE,1
STUDY001,EG,STUDY001-SUBJ0043,12,QT,QT Interval,406.6,msec,406.6,406.6,msec,,CHEST,SUPINE,12-LEAD ECG,,,NORMAL,WEEK 4,3,2025-03-02,28,PREDOSE,1
STUDY001,EG,STUDY001-SUBJ0043,13,QTC,QTc Interval,416.8,msec,416.8,416.8,msec,,CHEST,SUPINE,12-LEAD ECG,,,NORMAL,WEEK 4,3,2025-03-02,28,PREDOSE,1
STUDY001,EG,STUDY001-SUBJ0043,14,PR,PR Interval,165.4,msec,165.4,165.4,msec,,CHEST,SUPINE,12-LEAD ECG,,,NORMAL,WEEK 4,3,2025-03-02,28,PREDOSE,1
STUDY001,EG,STUDY001-SUBJ0043,15,QRS,QRS Duration,88.9,msec,88.9,88.9,msec,,CHEST,SUPINE,12-LEAD ECG,,,NORMAL,WEEK 4,3,2025-03-02,28,PREDOSE,1
STUDY001,EG,STUDY001-SUBJ0043,16,HR,Heart Rate,61.0,beats/min,61.0,61.0,beats/min,,CHEST,SUPINE,12-LEAD ECG,,,NORMAL,WEEK 12,4,2025-04-27,84,PREDOSE,1
STUDY001,EG,STUDY001-SUBJ0043,17,QT,QT Interval,400.5,msec,400.5,400.5,msec,,CHEST,SUPINE,12-LEAD ECG,,,NORMAL,WEEK 12,4,2025-04-27,84,PREDOSE,1
STUDY001,EG,STUDY001-SUBJ0043,18,QTC,QTc Interval,422.4,msec,422.4,422.4,msec,,CHEST,SUPINE,12-LEAD ECG,,,NORMAL,WEEK 12,4,2025-04-27,84,PREDOSE,1
STUDY001,EG,STUDY001-SUBJ0043,19,PR,PR Interval,168.1,msec,168.1,168.1,msec,,CHEST,SUPINE,12-LEAD ECG,,NOT DONE,NORMAL,WEEK 12,4,2025-04-27,84,PREDOSE,1
STUDY001,EG,STUDY001-SUBJ0043,20,QRS,QRS Duration,94.1,msec,94.1,94.1,msec,,CHEST,SUPINE,12-LEAD ECG,,,NORMAL,WEEK 12,4,2025-04-27,84,PREDOSE,1
STUDY001,EG,STUDY001-SUBJ0043,21,HR,Heart Rate,62.3,beats/min,62.3,62.3,beats/min,,CHEST,SUPINE,12-LEAD ECG,,,NORMAL,END OF TREATMENT,5,2025-06-22,140,PREDOSE,1
STUDY001,EG,STUDY001-SUBJ0043,22,QT,QT Interval,406.1,msec,406.1,406.1,msec,,CHEST,SUPINE,12-LEAD ECG,,,NORMAL,END OF TREATMENT,5,2025-06-22,140,PREDOSE,1
STUDY001,EG,STUDY001-SUBJ0043,23,QTC,QTc Interval,421.2,msec,421.2,421.2,msec,,CHEST,SUPINE,12-LEAD ECG,,,NORMAL,END OF TREATMENT,5,2025-06-22,140,PREDOSE,1
STUDY001,EG,STUDY001-SUBJ0043,24,PR,PR Interval,163.2,msec,163.2,163.2,msec,,CHEST,SUPINE,12-LEAD ECG,,,NORMAL,END OF TREATMENT,5,2025-06-22,140,PREDOSE,1
STUDY001,EG,STUDY001-SUBJ0043,25,QRS,QRS Duration,96.3,msec,96.3,96.3,msec,,CHEST,SUPINE,12-LEAD ECG,,,NORMAL,END OF TREATMENT,5,2025-06-22,140,PREDOSE,1
STUDY001,EG,STUDY001-SUBJ0044,1,HR,Heart Rate,66.4,beats/min,66.4,66.4,beats/min,,CHEST,SUPINE,12-LEAD ECG,,,NORMAL,SCREENING,1,2025-02-01,-14,PREDOSE,1
STUDY001,EG,STUDY001-SUBJ0044,2,QT,QT Interval,416.0,msec,416.0,416.0,msec,,CHEST,SUPINE,12-LEAD ECG,,,NORMAL,SCREENING,1,2025-02-01,-14,PREDOSE,1
STUDY001,EG,STUDY001-SUBJ0044,3,QTC,QTc Interval,394.9,msec,394.9,394.9,msec,,CHEST,SUPINE,12-LEAD ECG,,,NORMAL,SCREENING,1,2025-02-01,-14,PREDOSE,1
STUDY001,EG,STUDY001-SUBJ0044,4,PR,PR Interval,170.1,msec,170.1,170.1,msec,,CHEST,SUPINE,12-LEAD ECG,,,NORMAL,SCREENING,1,2025-02-01,-14,PREDOSE,1
STUDY001,EG,STUDY001-SUBJ0044,5,QRS,QRS Duration,87.8,msec,87.8,87.8,msec,,CHEST,SUPINE,12-LEAD ECG,,,NORMAL,SCREENING,1,2025-02-01,-14,PREDOSE,1
STUDY001,EG,STUDY001-SUBJ0044,6,HR,Heart Rate,66.2,beats/min,66.2,66.2,beats/min,Y,CHEST,SUPINE,12-LEAD ECG,,,NORMAL,BASELINE,2,2025-02-15,1,PREDOSE,1
STUDY001,EG,STUDY001-SUBJ0044,7,QT,QT Interval,418.8,msec,418.8,418.8,msec,Y,CHEST,SUPINE,12-LEAD ECG,,,NORMAL,BASELINE,2,2025-02-15,1,PREDOSE,1
STUDY001,EG,STUDY001-SUBJ0044,8,QTC,QTc Interval,390.6,msec,390.6,390.6,msec,Y,CHEST,SUPINE,12-LEAD ECG,,,NORMAL,BASELINE,2,2025-02-15,1,PREDOSE,1
STUDY001,EG,STUDY001-SUBJ0044,9,PR,PR Interval,171.4,msec,171.4,171.4,msec,Y,CHEST,SUPINE,12-LEAD ECG,TECHNICAL FAILURE,,NORMAL,BASELINE,2,2025-02-15,1,PREDOSE,1
STUDY001,EG,STUDY001-SUBJ0044,10,QRS,QRS Duration,88.9,msec,88.9,88.9,msec,Y,CHEST,SUPINE,12-LEAD ECG,,,NORMAL,BASELINE,2,2025-02-15,1,PREDOSE,1
STUDY001,EG,STUDY001-SUBJ0044,11,HR,Heart Rate,65.7,beats/min,65.7,65.7,beats/min,,CHEST,SUPINE,12-LEAD ECG,,,NORMAL,WEEK 4,3,2025-03-14,28,PREDOSE,1
STUDY001,EG,STUDY001-SUBJ0044,12,QT,QT Interval,423.3,msec,423.3,423.3,msec,,CHEST,SUPINE,12-LEAD ECG,,,NORMAL,WEEK 4,3,2025-03-14,28,PREDOSE,1
STUDY001,EG,STUDY001-SUBJ0044,13,QTC,QTc Interval,396.6,msec,396.6,396.6,msec,,CHEST,SUPINE,12-LEAD ECG,,,NORMAL,WEEK 4,3,2025-03-14,28,PREDOSE,1
STUDY001,EG,STUDY001-SUBJ0044,14,PR,PR Interval,167.3,msec,167.3,167.3,msec,,CHEST,SUPINE,12-LEAD ECG,,,NORMAL,WEEK 4,3,2025-03-14,28,PREDOSE,1
STUDY001,EG,STUDY001-SUBJ0044,15,QRS,QRS Duration,95.8,msec,95.8,95.8,msec,,CHEST,SUPINE,12-LEAD ECG,,,NORMAL,WEEK 4,3,2025-03-14,28,PREDOSE,1
STUDY001,EG,STUDY001-SUBJ0044,16,HR,Heart Rate,60.9,beats/min,60.9,60.9,beats/min,,CHEST,SUPINE,12-LEAD ECG,,,NORMAL,WEEK 12,4,2025-05-09,84,PREDOSE,1
STUDY001,EG,STUDY001-SUBJ0044,17,QT,QT Interval,423.0,msec,423.0,423.0,msec,,CHEST,SUPINE,12-LEAD ECG,,,NORMAL,WEEK 12,4,2025-05-09,84,PREDOSE,1
STUDY001,EG,STUDY001-SUBJ0044,18,QTC,QTc Interval,388.9,msec,388.9,388.9,msec,,CHEST,SUPINE,12-LEAD ECG,,,NORMAL,WEEK 12,4,2025-05-09,84,PREDOSE,1
STUDY001,EG,STUDY001-SUBJ0044,19,PR,PR Interval,166.0,msec,166.0,166.0,msec,,CHEST,SUPINE,12-LEAD ECG,,,NORMAL,WEEK 12,4,2025-05-09,84,PREDOSE,1
STUDY001,EG,STUDY001-SUBJ0044,20,QRS,QRS Duration,86.3,msec,86.3,86.3,msec,,CHEST,SUPINE,12-LEAD ECG,,,NORMAL,WEEK 12,4,2025-05-09,84,PREDOSE,1
STUDY001,EG,STUDY001-SUBJ0044,21,HR,Heart Rate,65.3,beats/min,65.3,65.3,beats/min,,CHEST,SUPINE,12-LEAD ECG,,,NORMAL,END OF TREATMENT,5,2025-07-04,140,PREDOSE,1
STUDY001,EG,STUDY001-SUBJ0044,22,QT,QT Interval,419.1,msec,419.1,419.1,msec,,CHEST,SUPINE,12-LEAD ECG,,,NORMAL,END OF TREATMENT,5,2025-07-04,140,PREDOSE,1
STUDY001,EG,STUDY001-SUBJ0044,23,QTC,QTc Interval,391.1,msec,391.1,391.1,msec,,CHEST,SUPINE,12-LEAD ECG,,,NORMAL,END OF TREATMENT,5,2025-07-04,140,PREDOSE,1
STUDY001,EG,STUDY001-SUBJ0044,24,PR,PR Interval,164.6,msec,164.6,164.6,msec,,CHEST,SUPINE,12-LEAD ECG,,,NORMAL,END OF TREATMENT,5,2025-07-04,140,PREDOSE,1
STUDY001,EG,STUDY001-SUBJ0044,25,QRS,QRS Duration,91.6,msec,91.6,91.6,msec,,CHEST,SUPINE,12-LEAD ECG,,,NORMAL,END OF TREATMENT,5,2025-07-04,140,PREDOSE,1
STUDY001,EG,STUDY001-SUBJ0045,1,HR,Heart Rate,76.8,beats/min,76.8,76.8,beats/min,,CHEST,SUPINE,12-LEAD ECG,,,NORMAL,SCREENING,1,2025-04-09,-14,PREDOSE,1
STUDY001,EG,STUDY001-SUBJ0045,2,QT,QT Interval,379.7,msec,379.7,379.7,msec,,CHEST,SUPINE,12-LEAD ECG,,,NORMAL,SCREENING,1,2025-04-09,-14,PREDOSE,1
STUDY001,EG,STUDY001-SUBJ0045,3,QTC,QTc Interval,409.9,msec,409.9,409.9,msec,,CHEST,SUPINE,12-LEAD ECG,,,NORMAL,SCREENING,1,2025-04-09,-14,PREDOSE,1
STUDY001,EG,STUDY001-SUBJ0045,4,PR,PR Interval,149.9,msec,149.9,149.9,msec,,CHEST,SUPINE,12-LEAD ECG,,,NORMAL,SCREENING,1,2025-04-09,-14,PREDOSE,1
STUDY001,EG,STUDY001-SUBJ0045,5,QRS,QRS Duration,93.3,msec,93.3,93.3,msec,,CHEST,SUPINE,12-LEAD ECG,,,NORMAL,SCREENING,1,2025-04-09,-14,PREDOSE,1
STUDY001,EG,STUDY001-SUBJ0045,6,HR,Heart Rate,77.0,beats/min,77.0,77.0,beats/min,Y,CHEST,SUPINE,12-LEAD ECG,,,NORMAL,BASELINE,2,2025-04-23,1,PREDOSE,1
STUDY001,EG,STUDY001-SUBJ0045,7,QT,QT Interval,380.3,msec,380.3,380.3,msec,Y,CHEST,SUPINE,12-LEAD ECG,,,NORMAL,BASELINE,2,2025-04-23,1,PREDOSE,1
STUDY001,EG,STUDY001-SUBJ0045,8,QTC,QTc Interval,410.5,msec,410.5,410.5,msec,Y,CHEST,SUPINE,12-LEAD ECG,,,NORMAL,BASELINE,2,2025-04-23,1,PREDOSE,1
STUDY001,EG,STUDY001-SUBJ0045,9,PR,PR Interval,147.8,msec,147.8,147.8,msec,Y,CHEST,SUPINE,12-LEAD ECG,,,NORMAL,BASELINE,2,2025-04-23,1,PREDOSE,1
STUDY001,EG,STUDY001-SUBJ0045,10,QRS,QRS Duration,92.1,msec,92.1,92.1,msec,Y,CHEST,SUPINE,12-LEAD ECG,,,NORMAL,BASELINE,2,2025-04-23,1,PREDOSE,1
STUDY001,EG,STUDY001-SUBJ0045,11,HR,Heart Rate,79.3,beats/min,79.3,79.3,beats/min,,CHEST,SUPINE,12-LEAD ECG,,NOT DONE,NORMAL,WEEK 4,3,2025-05-20,28,PREDOSE,1
STUDY001,EG,STUDY001-SUBJ0045,12,QT,QT Interval,375.5,msec,375.5,375.5,msec,,CHEST,SUPINE,12-LEAD ECG,,,NORMAL,WEEK 4,3,2025-05-20,28,PREDOSE,1
STUDY001,EG,STUDY001-SUBJ0045,13,QTC,QTc Interval,410.9,msec,410.9,410.9,msec,,CHEST,SUPINE,12-LEAD ECG,,NOT DONE,NORMAL,WEEK 4,3,2025-05-20,28,PREDOSE,1
STUDY001,EG,STUDY001-SUBJ0045,14,PR,PR Interval,143.2,msec,143.2,143.2,msec,,CHEST,SUPINE,12-LEAD ECG,,,NORMAL,WEEK 4,3,2025-05-20,28,PREDOSE,1
STUDY001,EG,STUDY001-SUBJ0045,15,QRS,QRS Duration,95.4,msec,95.4,95.4,msec,,CHEST,SUPINE,12-LEAD ECG,,,NORMAL,WEEK 4,3,2025-05-20,28,PREDOSE,1
STUDY001,EG,STUDY001-SUBJ0045,16,HR,Heart Rate,77.4,beats/min,77.4,77.4,beats/min,,CHEST,SUPINE,12-LEAD ECG,,,NORMAL,WEEK 12,4,2025-07-15,84,PREDOSE,1
STUDY001,EG,STUDY001-SUBJ0045,17,QT,QT Interval,377.8,msec,377.8,377.8,msec,,CHEST,SUPINE,12-LEAD ECG,,,NORMAL,WEEK 12,4,2025-07-15,84,PREDOSE,1
STUDY001,EG,STUDY001-SUBJ0045,18,QTC,QTc Interval,409.3,msec,409.3,409.3,msec,,CHEST,SUPINE,12-LEAD ECG,,,NORMAL,WEEK 12,4,2025-07-15,84,PREDOSE,1
STUDY001,EG,STUDY001-SUBJ0045,19,PR,PR Interval,146.0,msec,146.0,146.0,msec,,CHEST,SUPINE,12-LEAD ECG,,,NORMAL,WEEK 12,4,2025-07-15,84,PREDOSE,1
STUDY001,EG,STUDY001-SUBJ0045,20,QRS,QRS Duration,88.4,msec,88.4,88.4,msec,,CHEST,SUPINE,12-LEAD ECG,,,NORMAL,WEEK 12,4,2025-07-15,84,PREDOSE,1
STUDY001,EG,STUDY001-SUBJ0045,21,HR,Heart Rate,78.1,beats/min,78.1,78.1,beats/min,,CHEST,SUPINE,12-LEAD ECG,,,NORMAL,END OF TREATMENT,5,2025-09-09,140,PREDOSE,1
STUDY001,EG,STUDY001-SUBJ0045,22,QT,QT Interval,380.3,msec,380.3,380.3,msec,,CHEST,SUPINE,12-LEAD ECG,,,NORMAL,END OF TREATMENT,5,2025-09-09,140,PREDOSE,1
STUDY001,EG,STUDY001-SUBJ0045,23,QTC,QTc Interval,409.2,msec,409.2,409.2,msec,,CHEST,SUPINE,12-LEAD ECG,TECHNICAL FAILURE,,NORMAL,END OF TREATMENT,5,2025-09-09,140,PREDOSE,1
STUDY001,EG,STUDY001-SUBJ0045,24,PR,PR Interval,144.0,msec,144.0,144.0,msec,,CHEST,SUPINE,12-LEAD ECG,,,NORMAL,END OF TREATMENT,5,2025-09-09,140,PREDOSE,1
STUDY001,EG,STUDY001-SUBJ0045,25,QRS,QRS Duration,92.6,msec,92.6,92.6,msec,,CHEST,SUPINE,12-LEAD ECG,,,NORMAL,END OF TREATMENT,5,2025-09-09,140,PREDOSE,1
STUDY001,EG,STUDY001-SUBJ0046,1,HR,Heart Rate,63.0,beats/min,63.0,63.0,beats/min,,CHEST,SUPINE,12-LEAD ECG,,,NORMAL,SCREENING,1,2025-11-02,-14,PREDOSE,1
STUDY001,EG,STUDY001-SUBJ0046,2,QT,QT Interval,420.4,msec,420.4,420.4,msec,,CHEST,SUPINE,12-LEAD ECG,,,NORMAL,SCREENING,1,2025-11-02,-14,PREDOSE,1
STUDY001,EG,STUDY001-SUBJ0046,3,QTC,QTc Interval,430.5,msec,430.5,430.5,msec,,CHEST,SUPINE,12-LEAD ECG,,,NORMAL,SCREENING,1,2025-11-02,-14,PREDOSE,1
STUDY001,EG,STUDY001-SUBJ0046,4,PR,PR Interval,160.2,msec,160.2,160.2,msec,,CHEST,SUPINE,12-LEAD ECG,,,NORMAL,SCREENING,1,2025-11-02,-14,PREDOSE,1
STUDY001,EG,STUDY001-SUBJ0046,5,QRS,QRS Duration,89.5,msec,89.5,89.5,msec,,CHEST,SUPINE,12-LEAD ECG,,,NORMAL,SCREENING,1,2025-11-02,-14,PREDOSE,1
STUDY001,EG,STUDY001-SUBJ0046,6,HR,Heart Rate,65.3,beats/min,65.3,65.3,beats/min,Y,CHEST,SUPINE,12-LEAD ECG,,,NORMAL,BASELINE,2,2025-11-16,1,PREDOSE,1
STUDY001,EG,STUDY001-SUBJ0046,7,QT,QT Interval,414.3,msec,414.3,414.3,msec,Y,CHEST,SUPINE,12-LEAD ECG,,,NORMAL,BASELINE,2,2025-11-16,1,PREDOSE,1
STUDY001,EG,STUDY001-SUBJ0046,8,QTC,QTc Interval,433.8,msec,433.8,433.8,msec,Y,CHEST,SUPINE,12-LEAD ECG,,,NORMAL,BASELINE,2,2025-11-16,1,PREDOSE,1
STUDY001,EG,STUDY001-SUBJ0046,9,PR,PR Interval,159.8,msec,159.8,159.8,msec,Y,CHEST,SUPINE,12-LEAD ECG,,,NORMAL,BASELINE,2,2025-11-16,1,PREDOSE,1
STUDY001,EG,STUDY001-SUBJ0046,10,QRS,QRS Duration,93.8,msec,93.8,93.8,msec,Y,CHEST,SUPINE,12-LEAD ECG,,,NORMAL,BASELINE,2,2025-11-16,1,PREDOSE,1
STUDY001,EG,STUDY001-SUBJ0046,11,HR,Heart Rate,62.9,beats/min,62.9,62.9,beats/min,,CHEST,SUPINE,12-LEAD ECG,,,NORMAL,WEEK 4,3,2025-12-13,28,PREDOSE,1
STUDY001,EG,STUDY001-SUBJ0046,12,QT,QT Interval,414.8,msec,414.8,414.8,msec,,CHEST,SUPINE,12-LEAD ECG,,,NORMAL,WEEK 4,3,2025-12-13,28,PREDOSE,1
STUDY001,EG,STUDY001-SUBJ0046,13,QTC,QTc Interval,433.5,msec,433.5,433.5,msec,,CHEST,SUPINE,12-LEAD ECG,,,NORMAL,WEEK 4,3,2025-12-13,28,PREDOSE,1
STUDY001,EG,STUDY001-SUBJ0046,14,PR,PR Interval,166.1,msec,166.1,166.1,msec,,CHEST,SUPINE,12-LEAD ECG,,,NORMAL,WEEK 4,3,2025-12-13,28,PREDOSE,1
STUDY001,EG,STUDY001-SUBJ0046,15,QRS,QRS Duration,98.9,msec,98.9,98.9,msec,,CHEST,SUPINE,12-LEAD ECG,,,NORMAL,WEEK 4,3,2025-12-13,28,PREDOSE,1
STUDY001,EG,STUDY001-SUBJ0047,1,HR,Heart Rate,64.1,beats/min,64.1,64.1,beats/min,,CHEST,SUPINE,12-LEAD ECG,,,NORMAL,SCREENING,1,2025-11-01,-14,PREDOSE,1
STUDY001,EG,STUDY001-SUBJ0047,2,QT,QT Interval,409.3,msec,409.3,409.3,msec,,CHEST,SUPINE,12-LEAD ECG,,,NORMAL,SCREENING,1,2025-11-01,-14,PREDOSE,1
STUDY001,EG,STUDY001-SUBJ0047,3,QTC,QTc Interval,392.8,msec,392.8,392.8,msec,,CHEST,SUPINE,12-LEAD ECG,,,NORMAL,SCREENING,1,2025-11-01,-14,PREDOSE,1
STUDY001,EG,STUDY001-SUBJ0047,4,PR,PR Interval,158.2,msec,158.2,158.2,msec,,CHEST,SUPINE,12-LEAD ECG,,,NORMAL,SCREENING,1,2025-11-01,-14,PREDOSE,1
STUDY001,EG,STUDY001-SUBJ0047,5,QRS,QRS Duration,84.1,msec,84.1,84.1,msec,,CHEST,SUPINE,12-LEAD ECG,TECHNICAL FAILURE,,NORMAL,SCREENING,1,2025-11-01,-14,PREDOSE,1
STUDY001,EG,STUDY001-SUBJ0047,6,HR,Heart Rate,62.9,beats/min,62.9,62.9,beats/min,Y,CHEST,SUPINE,12-LEAD ECG,,,NORMAL,BASELINE,2,2025-11-15,1,PREDOSE,1
STUDY001,EG,STUDY001-SUBJ0047,7,QT,QT Interval,405.0,msec,405.0,405.0,msec,Y,CHEST,SUPINE,12-LEAD ECG,,,NORMAL,BASELINE,2,2025-11-15,1,PREDOSE,1
STUDY001,EG,STUDY001-SUBJ0047,8,QTC,QTc Interval,387.4,msec,387.4,387.4,msec,Y,CHEST,SUPINE,12-LEAD ECG,,,NORMAL,BASELINE,2,2025-11-15,1,PREDOSE,1
STUDY001,EG,STUDY001-SUBJ0047,9,PR,PR Interval,165.1,msec,165.1,165.1,msec,Y,CHEST,SUPINE,12-LEAD ECG,TECHNICAL FAILURE,,NORMAL,BASELINE,2,2025-11-15,1,PREDOSE,1
STUDY001,EG,STUDY001-SUBJ0047,10,QRS,QRS Duration,87.4,msec,87.4,87.4,msec,Y,CHEST,SUPINE,12-LEAD ECG,,,NORMAL,BASELINE,2,2025-11-15,1,PREDOSE,1
STUDY001,EG,STUDY001-SUBJ0048,1,HR,Heart Rate,77.9,beats/min,77.9,77.9,beats/min,,CHEST,SUPINE,12-LEAD ECG,,,NORMAL,SCREENING,1,2025-06-21,-14,PREDOSE,1
STUDY001,EG,STUDY001-SUBJ0048,2,QT,QT Interval,376.4,msec,376.4,376.4,msec,,CHEST,SUPINE,12-LEAD ECG,,,NORMAL,SCREENING,1,2025-06-21,-14,PREDOSE,1
STUDY001,EG,STUDY001-SUBJ0048,3,QTC,QTc Interval,389.9,msec,389.9,389.9,msec,,CHEST,SUPINE,12-LEAD ECG,,,NORMAL,SCREENING,1,2025-06-21,-14,PREDOSE,1
STUDY001,EG,STUDY001-SUBJ0048,4,PR,PR Interval,155.2,msec,155.2,155.2,msec,,CHEST,SUPINE,12-LEAD ECG,,,NORMAL,SCREENING,1,2025-06-21,-14,PREDOSE,1
STUDY001,EG,STUDY001-SUBJ0048,5,QRS,QRS Duration,84.1,msec,84.1,84.1,msec,,CHEST,SUPINE,12-LEAD ECG,,,NORMAL,SCREENING,1,2025-06-21,-14,PREDOSE,1
STUDY001,EG,STUDY001-SUBJ0048,6,HR,Heart Rate,68.4,beats/min,68.4,68.4,beats/min,Y,CHEST,SUPINE,12-LEAD ECG,TECHNICAL FAILURE,,NORMAL,BASELINE,2,2025-07-05,1,PREDOSE,1
STUDY001,EG,STUDY001-SUBJ0048,7,QT,QT Interval,379.1,msec,379.1,379.1,msec,Y,CHEST,SUPINE,12-LEAD ECG,,,NORMAL,BASELINE,2,2025-07-05,1,PREDOSE,1
STUDY001,EG,STUDY001-SUBJ0048,8,QTC,QTc Interval,387.9,msec,387.9,387.9,msec,Y,CHEST,SUPINE,12-LEAD ECG,,,NORMAL,BASELINE,2,2025-07-05,1,PREDOSE,1
STUDY001,EG,STUDY001-SUBJ0048,9,PR,PR Interval,146.8,msec,146.8,146.8,msec,Y,CHEST,SUPINE,12-LEAD ECG,,,NORMAL,BASELINE,2,2025-07-05,1,PREDOSE,1
STUDY001,EG,STUDY001-SUBJ0048,10,QRS,QRS Duration,89.8,msec,89.8,89.8,msec,Y,CHEST,SUPINE,12-LEAD ECG,,,NORMAL,BASELINE,2,2025-07-05,1,PREDOSE,1
STUDY001,EG,STUDY001-SUBJ0048,11,HR,Heart Rate,76.8,beats/min,76.8,76.8,beats/min,,CHEST,SUPINE,12-LEAD ECG,,,NORMAL,WEEK 4,3,2025-08-01,28,PREDOSE,1
STUDY001,EG,STUDY001-SUBJ0048,12,QT,QT Interval,378.9,msec,378.9,378.9,msec,,CHEST,SUPINE,12-LEAD ECG,,,NORMAL,WEEK 4,3,2025-08-01,28,PREDOSE,1
STUDY001,EG,STUDY001-SUBJ0048,13,QTC,QTc Interval,382.9,msec,382.9,382.9,msec,,CHEST,SUPINE,12-LEAD ECG,,,NORMAL,WEEK 4,3,2025-08-01,28,PREDOSE,1
STUDY001,EG,STUDY001-SUBJ0048,14,PR,PR Interval,151.3,msec,151.3,151.3,msec,,CHEST,SUPINE,12-LEAD ECG,,,NORMAL,WEEK 4,3,2025-08-01,28,PREDOSE,1
STUDY001,EG,STUDY001-SUBJ0048,15,QRS,QRS Duration,83.1,msec,83.1,83.1,msec,,CHEST,SUPINE,12-LEAD ECG,,,NORMAL,WEEK 4,3,2025-08-01,28,PREDOSE,1
STUDY001,EG,STUDY001-SUBJ0048,16,HR,Heart Rate,76.2,beats/min,76.2,76.2,beats/min,,CHEST,SUPINE,12-LEAD ECG,,,NORMAL,WEEK 12,4,2025-09-26,84,PREDOSE,1
STUDY001,EG,STUDY001-SUBJ0048,17,QT,QT Interval,383.0,msec,383.0,383.0,msec,,CHEST,SUPINE,12-LEAD ECG,,,NORMAL,WEEK 12,4,2025-09-26,84,PREDOSE,1
STUDY001,EG,STUDY001-SUBJ0048,18,QTC,QTc Interval,388.7,msec,388.7,388.7,msec,,CHEST,SUPINE,12-LEAD ECG,,,NORMAL,WEEK 12,4,2025-09-26,84,PREDOSE,1
STUDY001,EG,STUDY001-SUBJ0048,19,PR,PR Interval,154.1,msec,154.1,154.1,msec,,CHEST,SUPINE,12-LEAD ECG,,,NORMAL,WEEK 12,4,2025-09-26,84,PREDOSE,1
STUDY001,EG,STUDY001-SUBJ0048,20,QRS,QRS Duration,87.0,msec,87.0,87.0,msec,,CHEST,SUPINE,12-LEAD ECG,,,NORMAL,WEEK 12,4,2025-09-26,84,PREDOSE,1
STUDY001,EG,STUDY001-SUBJ0048,21,HR,Heart Rate,70.7,beats/min,70.7,70.7,beats/min,,CHEST,SUPINE,12-LEAD ECG,,,NORMAL,END OF TREATMENT,5,2025-11-21,140,PREDOSE,1
STUDY001,EG,STUDY001-SUBJ0048,22,QT,QT Interval,384.7,msec,384.7,384.7,msec,,CHEST,SUPINE,12-LEAD ECG,,,NORMAL,END OF TREATMENT,5,2025-11-21,140,PREDOSE,1
STUDY001,EG,STUDY001-SUBJ0048,23,QTC,QTc Interval,382.7,msec,382.7,382.7,msec,,CHEST,SUPINE,12-LEAD ECG,,,NORMAL,END OF TREATMENT,5,2025-11-21,140,PREDOSE,1
STUDY001,EG,STUDY001-SUBJ0048,24,PR,PR Interval,150.3,msec,150.3,150.3,msec,,CHEST,SUPINE,12-LEAD ECG,,,NORMAL,END OF TREATMENT,5,2025-11-21,140,PREDOSE,1
STUDY001,EG,STUDY001-SUBJ0048,25,QRS,QRS Duration,91.0,msec,91.0,91.0,msec,,CHEST,SUPINE,12-LEAD ECG,,,NORMAL,END OF TREATMENT,5,2025-11-21,140,PREDOSE,1
STUDY001,EG,STUDY001-SUBJ0049,1,HR,Heart Rate,79.9,beats/min,79.9,79.9,beats/min,,CHEST,SUPINE,12-LEAD ECG,,,NORMAL,SCREENING,1,2025-05-02,-14,PREDOSE,1
STUDY001,EG,STUDY001-SUBJ0049,2,QT,QT Interval,377.9,msec,377.9,377.9,msec,,CHEST,SUPINE,12-LEAD ECG,,,NORMAL,SCREENING,1,2025-05-02,-14,PREDOSE,1
STUDY001,EG,STUDY001-SUBJ0049,3,QTC,QTc Interval,382.6,msec,382.6,382.6,msec,,CHEST,SUPINE,12-LEAD ECG,,,NORMAL,SCREENING,1,2025-05-02,-14,PREDOSE,1
STUDY001,EG,STUDY001-SUBJ0049,4,PR,PR Interval,158.1,msec,158.1,158.1,msec,,CHEST,SUPINE,12-LEAD ECG,,,NORMAL,SCREENING,1,2025-05-02,-14,PREDOSE,1
STUDY001,EG,STUDY001-SUBJ0049,5,QRS,QRS Duration,78.5,msec,78.5,78.5,msec,,CHEST,SUPINE,12-LEAD ECG,,,NORMAL,SCREENING,1,2025-05-02,-14,PREDOSE,1
STUDY001,EG,STUDY001-SUBJ0049,6,HR,Heart Rate,83.6,beats/min,83.6,83.6,beats/min,Y,CHEST,SUPINE,12-LEAD ECG,,,NORMAL,BASELINE,2,2025-05-16,1,PREDOSE,1
STUDY001,EG,STUDY001-SUBJ0049,7,QT,QT Interval,370.8,msec,370.8,370.8,msec,Y,CHEST,SUPINE,12-LEAD ECG,,,NORMAL,BASELINE,2,2025-05-16,1,PREDOSE,1
STUDY001,EG,STUDY001-SUBJ0049,8,QTC,QTc Interval,388.4,msec,388.4,388.4,msec,Y,CHEST,SUPINE,12-LEAD ECG,,,NORMAL,BASELINE,2,2025-05-16,1,PREDOSE,1
STUDY001,EG,STUDY001-SUBJ0049,9,PR,PR Interval,157.9,msec,157.9,157.9,msec,Y,CHEST,SUPINE,12-LEAD ECG,,,NORMAL,BASELINE,2,2025-05-16,1,PREDOSE,1
STUDY001,EG,STUDY001-SUBJ0049,10,QRS,QRS Duration,84.2,msec,84.2,84.2,msec,Y,CHEST,SUPINE,12-LEAD ECG,,,NORMAL,BASELINE,2,2025-05-16,1,PREDOSE,1
STUDY001,EG,STUDY001-SUBJ0049,11,HR,Heart Rate,82.6,beats/min,82.6,82.6,beats/min,,CHEST,SUPINE,12-LEAD ECG,,,NORMAL,WEEK 4,3,2025-06-12,28,PREDOSE,1
STUDY001,EG,STUDY001-SUBJ0049,12,QT,QT Interval,369.3,msec,369.3,369.3,msec,,CHEST,SUPINE,12-LEAD ECG,,,NORMAL,WEEK 4,3,2025-06-12,28,PREDOSE,1
STUDY001,EG,STUDY001-SUBJ0049,13,QTC,QTc Interval,382.9,msec,382.9,382.9,msec,,CHEST,SUPINE,12-LEAD ECG,,,NORMAL,WEEK 4,3,2025-06-12,28,PREDOSE,1
STUDY001,EG,STUDY001-SUBJ0049,14,PR,PR Interval,149.1,msec,149.1,149.1,msec,,CHEST,SUPINE,12-LEAD ECG,,,NORMAL,WEEK 4,3,2025-06-12,28,PREDOSE,1
STUDY001,EG,STUDY001-SUBJ0049,15,QRS,QRS Duration,81.1,msec,81.1,81.1,msec,,CHEST,SUPINE,12-LEAD ECG,,,NORMAL,WEEK 4,3,2025-06-12,28,PREDOSE,1
STUDY001,EG,STUDY001-SUBJ0049,16,HR,Heart Rate,81.3,beats/min,81.3,81.3,beats/min,,CHEST,SUPINE,12-LEAD ECG,,,NORMAL,WEEK 12,4,2025-08-07,84,PREDOSE,1
STUDY001,EG,STUDY001-SUBJ0049,17,QT,QT Interval,372.4,msec,372.4,372.4,msec,,CHEST,SUPINE,12-LEAD ECG,,,NORMAL,WEEK 12,4,2025-08-07,84,PREDOSE,1
STUDY001,EG,STUDY001-SUBJ0049,18,QTC,QTc Interval,390.6,msec,390.6,390.6,msec,,CHEST,SUPINE,12-LEAD ECG,,,NORMAL,WEEK 12,4,2025-08-07,84,PREDOSE,1
STUDY001,EG,STUDY001-SUBJ0049,19,PR,PR Interval,149.8,msec,149.8,149.8,msec,,CHEST,SUPINE,12-LEAD ECG,,,NORMAL,WEEK 12,4,2025-08-07,84,PREDOSE,1
STUDY001,EG,STUDY001-SUBJ0049,20,QRS,QRS Duration,85.1,msec,85.1,85.1,msec,,CHEST,SUPINE,12-LEAD ECG,,,NORMAL,WEEK 12,4,2025-08-07,84,PREDOSE,1
STUDY001,EG,STUDY001-SUBJ0049,21,HR,Heart Rate,78.9,beats/min,78.9,78.9,beats/min,,CHEST,SUPINE,12-LEAD ECG,,,NORMAL,END OF TREATMENT,5,2025-10-02,140,PREDOSE,1
STUDY001,EG,STUDY001-SUBJ0049,22,QT,QT Interval,373.9,msec,373.9,373.9,msec,,CHEST,SUPINE,12-LEAD ECG,,,NORMAL,END OF TREATMENT,5,2025-10-02,140,PREDOSE,1
STUDY001,EG,STUDY001-SUBJ0049,23,QTC,QTc Interval,390.9,msec,390.9,390.9,msec,,CHEST,SUPINE,12-LEAD ECG,,,NORMAL,END OF TREATMENT,5,2025-10-02,140,PREDOSE,1
STUDY001,EG,STUDY001-SUBJ0049,24,PR,PR Interval,156.9,msec,156.9,156.9,msec,,CHEST,SUPINE,12-LEAD ECG,,,NORMAL,END OF TREATMENT,5,2025-10-02,140,PREDOSE,1
STUDY001,EG,STUDY001-SUBJ0049,25,QRS,QRS Duration,84.1,msec,84.1,84.1,msec,,CHEST,SUPINE,12-LEAD ECG,,,NORMAL,END OF TREATMENT,5,2025-10-02,140,PREDOSE,1
STUDY001,EG,STUDY001-SUBJ0050,1,HR,Heart Rate,73.7,beats/min,73.7,73.7,beats/min,,CHEST,SUPINE,12-LEAD ECG,,,NORMAL,SCREENING,1,2025-10-07,-14,PREDOSE,1
STUDY001,EG,STUDY001-SUBJ0050,2,QT,QT Interval,394.3,msec,394.3,394.3,msec,,CHEST,SUPINE,12-LEAD ECG,,,NORMAL,SCREENING,1,2025-10-07,-14,PREDOSE,1
STUDY001,EG,STUDY001-SUBJ0050,3,QTC,QTc Interval,387.0,msec,387.0,387.0,msec,,CHEST,SUPINE,12-LEAD ECG,,,NORMAL,SCREENING,1,2025-10-07,-14,PREDOSE,1
STUDY001,EG,STUDY001-SUBJ0050,4,PR,PR Interval,148.8,msec,148.8,148.8,msec,,CHEST,SUPINE,12-LEAD ECG,,,NORMAL,SCREENING,1,2025-10-07,-14,PREDOSE,1
STUDY001,EG,STUDY001-SUBJ0050,5,QRS,QRS Duration,91.0,msec,91.0,91.0,msec,,CHEST,SUPINE,12-LEAD ECG,,,NORMAL,SCREENING,1,2025-10-07,-14,PREDOSE,1
STUDY001,EG,STUDY001-SUBJ0050,6,HR,Heart Rate,76.1,beats/min,76.1,76.1,beats/min,Y,CHEST,SUPINE,12-LEAD ECG,,,NORMAL,BASELINE,2,2025-10-21,1,PREDOSE,1
STUDY001,EG,STUDY001-SUBJ0050,7,QT,QT Interval,397.3,msec,397.3,397.3,msec,Y,CHEST,SUPINE,12-LEAD ECG,,,NORMAL,BASELINE,2,2025-10-21,1,PREDOSE,1
STUDY001,EG,STUDY001-SUBJ0050,8,QTC,QTc Interval,386.4,msec,386.4,386.4,msec,Y,CHEST,SUPINE,12-LEAD ECG,,,NORMAL,BASELINE,2,2025-10-21,1,PREDOSE,1
STUDY001,EG,STUDY001-SUBJ0050,9,PR,PR Interval,149.1,msec,149.1,149.1,msec,Y,CHEST,SUPINE,12-LEAD ECG,,,NORMAL,BASELINE,2,2025-10-21,1,PREDOSE,1
STUDY001,EG,STUDY001-SUBJ0050,10,QRS,QRS Duration,95.8,msec,95.8,95.8,msec,Y,CHEST,SUPINE,12-LEAD ECG,,NOT DONE,NORMAL,BASELINE,2,2025-10-21,1,PREDOSE,1
STUDY001,EG,STUDY001-SUBJ0050,11,HR,Heart Rate,82.7,beats/min,82.7,82.7,beats/min,,CHEST,SUPINE,12-LEAD ECG,,,NORMAL,WEEK 4,3,2025-11-17,28,PREDOSE,1
STUDY001,EG,STUDY001-SUBJ0050,12,QT,QT Interval,397.8,msec,397.8,397.8,msec,,CHEST,SUPINE,12-LEAD ECG,,,NORMAL,WEEK 4,3,2025-11-17,28,PREDOSE,1
STUDY001,EG,STUDY001-SUBJ0050,13,QTC,QTc Interval,383.3,msec,383.3,383.3,msec,,CHEST,SUPINE,12-LEAD ECG,,,NORMAL,WEEK 4,3,2025-11-17,28,PREDOSE,1
STUDY001,EG,STUDY001-SUBJ0050,14,PR,PR Interval,147.1,msec,147.1,147.1,msec,,CHEST,SUPINE,12-LEAD ECG,,,NORMAL,WEEK 4,3,2025-11-17,28,PREDOSE,1
STUDY001,EG,STUDY001-SUBJ0050,15,QRS,QRS Duration,90.0,msec,90.0,90.0,msec,,CHEST,SUPINE,12-LEAD ECG,,,NORMAL,WEEK 4,3,2025-11-17,28,PREDOSE,1
STUDY001,EG,STUDY001-SUBJ0051,1,HR,Heart Rate,68.6,beats/min,68.6,68.6,beats/min,,CHEST,SUPINE,12-LEAD ECG,,,NORMAL,SCREENING,1,2025-03-12,-14,PREDOSE,1
STUDY001,EG,STUDY001-SUBJ0051,2,QT,QT Interval,407.3,msec,407.3,407.3,msec,,CHEST,SUPINE,12-LEAD ECG,,,NORMAL,SCREENING,1,2025-03-12,-14,PREDOSE,1
STUDY001,EG,STUDY001-SUBJ0051,3,QTC,QTc Interval,398.4,msec,398.4,398.4,msec,,CHEST,SUPINE,12-LEAD ECG,,,NORMAL,SCREENING,1,2025-03-12,-14,PREDOSE,1
STUDY001,EG,STUDY001-SUBJ0051,4,PR,PR Interval,144.3,msec,144.3,144.3,msec,,CHEST,SUPINE,12-LEAD ECG,,,NORMAL,SCREENING,1,2025-03-12,-14,PREDOSE,1
STUDY001,EG,STUDY001-SUBJ0051,5,QRS,QRS Duration,96.9,msec,96.9,96.9,msec,,CHEST,SUPINE,12-LEAD ECG,,,NORMAL,SCREENING,1,2025-03-12,-14,PREDOSE,1
STUDY001,EG,STUDY001-SUBJ0051,6,HR,Heart Rate,59.8,beats/min,59.8,59.8,beats/min,Y,CHEST,SUPINE,12-LEAD ECG,,,LOW,BASELINE,2,2025-03-26,1,PREDOSE,1
STUDY001,EG,STUDY001-SUBJ0051,7,QT,QT Interval,398.9,msec,398.9,398.9,msec,Y,CHEST,SUPINE,12-LEAD ECG,,,NORMAL,BASELINE,2,2025-03-26,1,PREDOSE,1
STUDY001,EG,STUDY001-SUBJ0051,8,QTC,QTc Interval,403.7,msec,403.7,403.7,msec,Y,CHEST,SUPINE,12-LEAD ECG,,,NORMAL,BASELINE,2,2025-03-26,1,PREDOSE,1
STUDY001,EG,STUDY001-SUBJ0051,9,PR,PR Interval,141.9,msec,141.9,141.9,msec,Y,CHEST,SUPINE,12-LEAD ECG,,,NORMAL,BASELINE,2,2025-03-26,1,PREDOSE,1
STUDY001,EG,STUDY001-SUBJ0051,10,QRS,QRS Duration,104.7,msec,104.7,104.7,msec,Y,CHEST,SUPINE,12-LEAD ECG,,,NORMAL,BASELINE,2,2025-03-26,1,PREDOSE,1
STUDY001,EG,STUDY001-SUBJ0051,11,HR,Heart Rate,63.8,beats/min,63.8,63.8,beats/min,,CHEST,SUPINE,12-LEAD ECG,,,NORMAL,WEEK 4,3,2025-04-22,28,PREDOSE,1
STUDY001,EG,STUDY001-SUBJ0051,12,QT,QT Interval,403.6,msec,403.6,403.6,msec,,CHEST,SUPINE,12-LEAD ECG,,,NORMAL,WEEK 4,3,2025-04-22,28,PREDOSE,1
STUDY001,EG,STUDY001-SUBJ0051,13,QTC,QTc Interval,402.3,msec,402.3,402.3,msec,,CHEST,SUPINE,12-LEAD ECG,,,NORMAL,WEEK 4,3,2025-04-22,28,PREDOSE,1
STUDY001,EG,STUDY001-SUBJ0051,14,PR,PR Interval,149.2,msec,149.2,149.2,msec,,CHEST,SUPINE,12-LEAD ECG,,NOT DONE,NORMAL,WEEK 4,3,2025-04-22,28,PREDOSE,1
STUDY001,EG,STUDY001-SUBJ0051,15,QRS,QRS Duration,100.0,msec,100.0,100.0,msec,,CHEST,SUPINE,12-LEAD ECG,,,NORMAL,WEEK 4,3,2025-04-22,28,PREDOSE,1
STUDY001,EG,STUDY001-SUBJ0051,16,HR,Heart Rate,62.4,beats/min,62.4,62.4,beats/min,,CHEST,SUPINE,12-LEAD ECG,,,NORMAL,WEEK 12,4,2025-06-17,84,PREDOSE,1
STUDY001,EG,STUDY001-SUBJ0051,17,QT,QT Interval,398.7,msec,398.7,398.7,msec,,CHEST,SUPINE,12-LEAD ECG,,,NORMAL,WEEK 12,4,2025-06-17,84,PREDOSE,1
STUDY001,EG,STUDY001-SUBJ0051,18,QTC,QTc Interval,407.3,msec,407.3,407.3,msec,,CHEST,SUPINE,12-LEAD ECG,,,NORMAL,WEEK 12,4,2025-06-17,84,PREDOSE,1
STUDY001,EG,STUDY001-SUBJ0051,19,PR,PR Interval,145.9,msec,145.9,145.9,msec,,CHEST,SUPINE,12-LEAD ECG,,,NORMAL,WEEK 12,4,2025-06-17,84,PREDOSE,1
STUDY001,EG,STUDY001-SUBJ0051,20,QRS,QRS Duration,103.4,msec,103.4,103.4,msec,,CHEST,SUPINE,12-LEAD ECG,,NOT DONE,NORMAL,WEEK 12,4,2025-06-17,84,PREDOSE,1
STUDY001,EG,STUDY001-SUBJ0051,21,HR,Heart Rate,64.1,beats/min,64.1,64.1,beats/min,,CHEST,SUPINE,12-LEAD ECG,,,NORMAL,END OF TREATMENT,5,2025-08-12,140,PREDOSE,1
STUDY001,EG,STUDY001-SUBJ0051,22,QT,QT Interval,400.7,msec,400.7,400.7,msec,,CHEST,SUPINE,12-LEAD ECG,,,NORMAL,END OF TREATMENT,5,2025-08-12,140,PREDOSE,1
STUDY001,EG,STUDY001-SUBJ0051,23,QTC,QTc Interval,401.9,msec,401.9,401.9,msec,,CHEST,SUPINE,12-LEAD ECG,,,NORMAL,END OF TREATMENT,5,2025-08-12,140,PREDOSE,1
STUDY001,EG,STUDY001-SUBJ0051,24,PR,PR Interval,147.0,msec,147.0,147.0,msec,,CHEST,SUPINE,12-LEAD ECG,,,NORMAL,END OF TREATMENT,5,2025-08-12,140,PREDOSE,1
STUDY001,EG,STUDY001-SUBJ0051,25,QRS,QRS Duration,99.5,msec,99.5,99.5,msec,,CHEST,SUPINE,12-LEAD ECG,,,NORMAL,END OF TREATMENT,5,2025-08-12,140,PREDOSE,1
STUDY001,EG,STUDY001-SUBJ0052,1,HR,Heart Rate,57.7,beats/min,57.7,57.7,beats/min,,CHEST,SUPINE,12-LEAD ECG,,,LOW,SCREENING,1,2025-08-21,-14,PREDOSE,1
STUDY001,EG,STUDY001-SUBJ0052,2,QT,QT Interval,411.8,msec,411.8,411.8,msec,,CHEST,SUPINE,12-LEAD ECG,,,NORMAL,SCREENING,1,2025-08-21,-14,PREDOSE,1
STUDY001,EG,STUDY001-SUBJ0052,3,QTC,QTc Interval,391.8,msec,391.8,391.8,msec,,CHEST,SUPINE,12-LEAD ECG,,,NORMAL,SCREENING,1,2025-08-21,-14,PREDOSE,1
STUDY001,EG,STUDY001-SUBJ0052,4,PR,PR Interval,143.4,msec,143.4,143.4,msec,,CHEST,SUPINE,12-LEAD ECG,,,NORMAL,SCREENING,1,2025-08-21,-14,PREDOSE,1
STUDY001,EG,STUDY001-SUBJ0052,5,QRS,QRS Duration,90.2,msec,90.2,90.2,msec,,CHEST,SUPINE,12-LEAD ECG,,,NORMAL,SCREENING,1,2025-08-21,-14,PREDOSE,1
STUDY001,EG,STUDY001-SUBJ0052,6,HR,Heart Rate,60.0,beats/min,60.0,60.0,beats/min,Y,CHEST,SUPINE,12-LEAD ECG,,,LOW,BASELINE,2,2025-09-04,1,PREDOSE,1
STUDY001,EG,STUDY001-SUBJ0052,7,QT,QT Interval,409.4,msec,409.4,409.4,msec,Y,CHEST,SUPINE,12-LEAD ECG,,NOT DONE,NORMAL,BASELINE,2,2025-09-04,1,PREDOSE,1
STUDY001,EG,STUDY001-SUBJ0052,8,QTC,QTc Interval,393.3,msec,393.3,393.3,msec,Y,CHEST,SUPINE,12-LEAD ECG,,,NORMAL,BASELINE,2,2025-09-04,1,PREDOSE,1
STUDY001,EG,STUDY001-SUBJ0052,9,PR,PR Interval,137.6,msec,137.6,137.6,msec,Y,CHEST,SUPINE,12-LEAD ECG,,,NORMAL,BASELINE,2,2025-09-04,1,PREDOSE,1
STUDY001,EG,STUDY001-SUBJ0052,10,QRS,QRS Duration,90.0,msec,90.0,90.0,msec,Y,CHEST,SUPINE,12-LEAD ECG,,,NORMAL,BASELINE,2,2025-09-04,1,PREDOSE,1
STUDY001,EG,STUDY001-SUBJ0052,11,HR,Heart Rate,57.5,beats/min,57.5,57.5,beats/min,,CHEST,SUPINE,12-LEAD ECG,,,LOW,WEEK 4,3,2025-10-01,28,PREDOSE,1
STUDY001,EG,STUDY001-SUBJ0052,12,QT,QT Interval,412.0,msec,412.0,412.0,msec,,CHEST,SUPINE,12-LEAD ECG,,,NORMAL,WEEK 4,3,2025-10-01,28,PREDOSE,1
STUDY001,EG,STUDY001-SUBJ0052,13,QTC,QTc Interval,390.2,msec,390.2,390.2,msec,,CHEST,SUPINE,12-LEAD ECG,,,NORMAL,WEEK 4,3,2025-10-01,28,PREDOSE,1
STUDY001,EG,STUDY001-SUBJ0052,14,PR,PR Interval,139.6,msec,139.6,139.6,msec,,CHEST,SUPINE,12-LEAD ECG,,NOT DONE,NORMAL,WEEK 4,3,2025-10-01,28,PREDOSE,1
STUDY001,EG,STUDY001-SUBJ0052,15,QRS,QRS Duration,90.5,msec,90.5,90.5,msec,,CHEST,SUPINE,12-LEAD ECG,,,NORMAL,WEEK 4,3,2025-10-01,28,PREDOSE,1
STUDY001,EG,STUDY001-SUBJ0052,16,HR,Heart Rate,65.7,beats/min,65.7,65.7,beats/min,,CHEST,SUPINE,12-LEAD ECG,,,NORMAL,WEEK 12,4,2025-11-26,84,PREDOSE,1
STUDY001,EG,STUDY001-SUBJ0052,17,QT,QT Interval,414.3,msec,414.3,414.3,msec,,CHEST,SUPINE,12-LEAD ECG,,,NORMAL,WEEK 12,4,2025-11-26,84,PREDOSE,1
STUDY001,EG,STUDY001-SUBJ0052,18,QTC,QTc Interval,392.5,msec,392.5,392.5,msec,,CHEST,SUPINE,12-LEAD ECG,,,NORMAL,WEEK 12,4,2025-11-26,84,PREDOSE,1
STUDY001,EG,STUDY001-SUBJ0052,19,PR,PR Interval,135.8,msec,135.8,135.8,msec,,CHEST,SUPINE,12-LEAD ECG,,,NORMAL,WEEK 12,4,2025-11-26,84,PREDOSE,1
STUDY001,EG,STUDY001-SUBJ0052,20,QRS,QRS Duration,85.1,msec,85.1,85.1,msec,,CHEST,SUPINE,12-LEAD ECG,,,NORMAL,WEEK 12,4,2025-11-26,84,PREDOSE,1
STUDY001,EG,STUDY001-SUBJ0053,1,HR,Heart Rate,74.7,beats/min,74.7,74.7,beats/min,,CHEST,SUPINE,12-LEAD ECG,,,NORMAL,SCREENING,1,2024-12-23,-14,PREDOSE,1
STUDY001,EG,STUDY001-SUBJ0053,2,QT,QT Interval,423.7,msec,423.7,423.7,msec,,CHEST,SUPINE,12-LEAD ECG,,,NORMAL,SCREENING,1,2024-12-23,-14,PREDOSE,1
STUDY001,EG,STUDY001-SUBJ0053,3,QTC,QTc Interval,403.0,msec,403.0,403.0,msec,,CHEST,SUPINE,12-LEAD ECG,,,NORMAL,SCREENING,1,2024-12-23,-14,PREDOSE,1
STUDY001,EG,STUDY001-SUBJ0053,4,PR,PR Interval,177.7,msec,177.7,177.7,msec,,CHEST,SUPINE,12-LEAD ECG,,,NORMAL,SCREENING,1,2024-12-23,-14,PREDOSE,1
STUDY001,EG,STUDY001-SUBJ0053,5,QRS,QRS Duration,95.9,msec,95.9,95.9,msec,,CHEST,SUPINE,12-LEAD ECG,,,NORMAL,SCREENING,1,2024-12-23,-14,PREDOSE,1
STUDY001,EG,STUDY001-SUBJ0053,6,HR,Heart Rate,75.7,beats/min,75.7,75.7,beats/min,Y,CHEST,SUPINE,12-LEAD ECG,,,NORMAL,BASELINE,2,2025-01-06,1,PREDOSE,1
STUDY001,EG,STUDY001-SUBJ0053,7,QT,QT Interval,430.1,msec,430.1,430.1,msec,Y,CHEST,SUPINE,12-LEAD ECG,,,NORMAL,BASELINE,2,2025-01-06,1,PREDOSE,1
STUDY001,EG,STUDY001-SUBJ0053,8,QTC,QTc Interval,402.1,msec,402.1,402.1,msec,Y,CHEST,SUPINE,12-LEAD ECG,,,NORMAL,BASELINE,2,2025-01-06,1,PREDOSE,1
STUDY001,EG,STUDY001-SUBJ0053,9,PR,PR Interval,171.0,msec,171.0,171.0,msec,Y,CHEST,SUPINE,12-LEAD ECG,,,NORMAL,BASELINE,2,2025-01-06,1,PREDOSE,1
STUDY001,EG,STUDY001-SUBJ0053,10,QRS,QRS Duration,102.4,msec,102.4,102.4,msec,Y,CHEST,SUPINE,12-LEAD ECG,,,NORMAL,BASELINE,2,2025-01-06,1,PREDOSE,1
STUDY001,EG,STUDY001-SUBJ0053,11,HR,Heart Rate,74.4,beats/min,74.4,74.4,beats/min,,CHEST,SUPINE,12-LEAD ECG,,,NORMAL,WEEK 4,3,2025-02-02,28,PREDOSE,1
STUDY001,EG,STUDY001-SUBJ0053,12,QT,QT Interval,428.5,msec,428.5,428.5,msec,,CHEST,SUPINE,12-LEAD ECG,,,NORMAL,WEEK 4,3,2025-02-02,28,PREDOSE,1
STUDY001,EG,STUDY001-SUBJ0053,13,QTC,QTc Interval,404.4,msec,404.4,404.4,msec,,CHEST,SUPINE,12-LEAD ECG,,,NORMAL,WEEK 4,3,2025-02-02,28,PREDOSE,1
STUDY001,EG,STUDY001-SUBJ0053,14,PR,PR Interval,178.2,msec,178.2,178.2,msec,,CHEST,SUPINE,12-LEAD ECG,,,NORMAL,WEEK 4,3,2025-02-02,28,PREDOSE,1
STUDY001,EG,STUDY001-SUBJ0053,15,QRS,QRS Duration,97.4,msec,97.4,97.4,msec,,CHEST,SUPINE,12-LEAD ECG,,,NORMAL,WEEK 4,3,2025-02-02,28,PREDOSE,1
STUDY001,EG,STUDY001-SUBJ0053,16,HR,Heart Rate,77.2,beats/min,77.2,77.2,beats/min,,CHEST,SUPINE,12-LEAD ECG,,,NORMAL,WEEK 12,4,2025-03-30,84,PREDOSE,1
STUDY001,EG,STUDY001-SUBJ0053,17,QT,QT Interval,427.5,msec,427.5,427.5,msec,,CHEST,SUPINE,12-LEAD ECG,,,NORMAL,WEEK 12,4,2025-03-30,84,PREDOSE,1
STUDY001,EG,STUDY001-SUBJ0053,18,QTC,QTc Interval,396.8,msec,396.8,396.8,msec,,CHEST,SUPINE,12-LEAD ECG,,,NORMAL,WEEK 12,4,2025-03-30,84,PREDOSE,1
STUDY001,EG,STUDY001-SUBJ0053,19,PR,PR Interval,177.8,msec,177.8,177.8,msec,,CHEST,SUPINE,12-LEAD ECG,,,NORMAL,WEEK 12,4,2025-03-30,84,PREDOSE,1
STUDY001,EG,STUDY001-SUBJ0053,20,QRS,QRS Duration,97.7,msec,97.7,97.7,msec,,CHEST,SUPINE,12-LEAD ECG,,,NORMAL,WEEK 12,4,2025-03-30,84,PREDOSE,1
STUDY001,EG,STUDY001-SUBJ0053,21,HR,Heart Rate,69.3,beats/min,69.3,69.3,beats/min,,CHEST,SUPINE,12-LEAD ECG,,,NORMAL,END OF TREATMENT,5,2025-05-25,140,PREDOSE,1
STUDY001,EG,STUDY001-SUBJ0053,22,QT,QT Interval,430.7,msec,430.7,430.7,msec,,CHEST,SUPINE,12-LEAD ECG,,,NORMAL,END OF TREATMENT,5,2025-05-25,140,PREDOSE,1
STUDY001,EG,STUDY001-SUBJ0053,23,QTC,QTc Interval,399.1,msec,399.1,399.1,msec,,CHEST,SUPINE,12-LEAD ECG,,,NORMAL,END OF TREATMENT,5,2025-05-25,140,PREDOSE,1
STUDY001,EG,STUDY001-SUBJ0053,24,PR,PR Interval,174.5,msec,174.5,174.5,msec,,CHEST,SUPINE,12-LEAD ECG,,,NORMAL,END OF TREATMENT,5,2025-05-25,140,PREDOSE,1
STUDY001,EG,STUDY001-SUBJ0053,25,QRS,QRS Duration,97.9,msec,97.9,97.9,msec,,CHEST,SUPINE,12-LEAD ECG,,,NORMAL,END OF TREATMENT,5,2025-05-25,140,PREDOSE,1
STUDY001,EG,STUDY001-SUBJ0054,1,HR,Heart Rate,59.2,beats/min,59.2,59.2,beats/min,,CHEST,SUPINE,12-LEAD ECG,,,LOW,SCREENING,1,2025-07-15,-14,PREDOSE,1
STUDY001,EG,STUDY001-SUBJ0054,2,QT,QT Interval,410.7,msec,410.7,410.7,msec,,CHEST,SUPINE,12-LEAD ECG,TECHNICAL FAILURE,,NORMAL,SCREENING,1,2025-07-15,-14,PREDOSE,1
STUDY001,EG,STUDY001-SUBJ0054,3,QTC,QTc Interval,429.2,msec,429.2,429.2,msec,,CHEST,SUPINE,12-LEAD ECG,,,NORMAL,SCREENING,1,2025-07-15,-14,PREDOSE,1
STUDY001,EG,STUDY001-SUBJ0054,4,PR,PR Interval,150.1,msec,150.1,150.1,msec,,CHEST,SUPINE,12-LEAD ECG,,,NORMAL,SCREENING,1,2025-07-15,-14,PREDOSE,1
STUDY001,EG,STUDY001-SUBJ0054,5,QRS,QRS Duration,95.6,msec,95.6,95.6,msec,,CHEST,SUPINE,12-LEAD ECG,,,NORMAL,SCREENING,1,2025-07-15,-14,PREDOSE,1
STUDY001,EG,STUDY001-SUBJ0054,6,HR,Heart Rate,59.3,beats/min,59.3,59.3,beats/min,Y,CHEST,SUPINE,12-LEAD ECG,,,LOW,BASELINE,2,2025-07-29,1,PREDOSE,1
STUDY001,EG,STUDY001-SUBJ0054,7,QT,QT Interval,415.1,msec,415.1,415.1,msec,Y,CHEST,SUPINE,12-LEAD ECG,TECHNICAL FAILURE,,NORMAL,BASELINE,2,2025-07-29,1,PREDOSE,1
STUDY001,EG,STUDY001-SUBJ0054,8,QTC,QTc Interval,428.2,msec,428.2,428.2,msec,Y,CHEST,SUPINE,12-LEAD ECG,,,NORMAL,BASELINE,2,2025-07-29,1,PREDOSE,1
STUDY001,EG,STUDY001-SUBJ0054,9,PR,PR Interval,154.5,msec,154.5,154.5,msec,Y,CHEST,SUPINE,12-LEAD ECG,,,NORMAL,BASELINE,2,2025-07-29,1,PREDOSE,1
STUDY001,EG,STUDY001-SUBJ0054,10,QRS,QRS Duration,96.5,msec,96.5,96.5,msec,Y,CHEST,SUPINE,12-LEAD ECG,,,NORMAL,BASELINE,2,2025-07-29,1,PREDOSE,1
STUDY001,EG,STUDY001-SUBJ0054,11,HR,Heart Rate,62.2,beats/min,62.2,62.2,beats/min,,CHEST,SUPINE,12-LEAD ECG,,,NORMAL,WEEK 4,3,2025-08-25,28,PREDOSE,1
STUDY001,EG,STUDY001-SUBJ0054,12,QT,QT Interval,409.6,msec,409.6,409.6,msec,,CHEST,SUPINE,12-LEAD ECG,,NOT DONE,NORMAL,WEEK 4,3,2025-08-25,28,PREDOSE,1
STUDY001,EG,STUDY001-SUBJ0054,13,QTC,QTc Interval,423.7,msec,423.7,423.7,msec,,CHEST,SUPINE,12-LEAD ECG,,,NORMAL,WEEK 4,3,2025-08-25,28,PREDOSE,1
STUDY001,EG,STUDY001-SUBJ0054,14,PR,PR Interval,153.4,msec,153.4,153.4,msec,,CHEST,SUPINE,12-LEAD ECG,TECHNICAL FAILURE,,NORMAL,WEEK 4,3,2025-08-25,28,PREDOSE,1
STUDY001,EG,STUDY001-SUBJ0054,15,QRS,QRS Duration,99.4,msec,99.4,99.4,msec,,CHEST,SUPINE,12-LEAD ECG,,,NORMAL,WEEK 4,3,2025-08-25,28,PREDOSE,1
STUDY001,EG,STUDY001-SUBJ0054,16,HR,Heart Rate,67.7,beats/min,67.7,67.7,beats/min,,CHEST,SUPINE,12-LEAD ECG,,,NORMAL,WEEK 12,4,2025-10-20,84,PREDOSE,1
STUDY001,EG,STUDY001-SUBJ0054,17,QT,QT Interval,407.9,msec,407.9,407.9,msec,,CHEST,SUPINE,12-LEAD ECG,,,NORMAL,WEEK 12,4,2025-10-20,84,PREDOSE,1
STUDY001,EG,STUDY001-SUBJ0054,18,QTC,QTc Interval,427.1,msec,427.1,427.1,msec,,CHEST,SUPINE,12-LEAD ECG,,,NORMAL,WEEK 12,4,2025-10-20,84,PREDOSE,1
STUDY001,EG,STUDY001-SUBJ0054,19,PR,PR Interval,155.2,msec,155.2,155.2,msec,,CHEST,SUPINE,12-LEAD ECG,,,NORMAL,WEEK 12,4,2025-10-20,84,PREDOSE,1
STUDY001,EG,STUDY001-SUBJ0054,20,QRS,QRS Duration,99.8,msec,99.8,99.8,msec,,CHEST,SUPINE,12-LEAD ECG,,,NORMAL,WEEK 12,4,2025-10-20,84,PREDOSE,1
STUDY001,EG,STUDY001-SUBJ0054,21,HR,Heart Rate,63.6,beats/min,63.6,63.6,beats/min,,CHEST,SUPINE,12-LEAD ECG,,NOT DONE,NORMAL,END OF TREATMENT,5,2025-12-15,140,PREDOSE,1
STUDY001,EG,STUDY001-SUBJ0054,22,QT,QT Interval,409.8,msec,409.8,409.8,msec,,CHEST,SUPINE,12-LEAD ECG,,,NORMAL,END OF TREATMENT,5,2025-12-15,140,PREDOSE,1
STUDY001,EG,STUDY001-SUBJ0054,23,QTC,QTc Interval,425.9,msec,425.9,425.9,msec,,CHEST,SUPINE,12-LEAD ECG,,,NORMAL,END OF TREATMENT,5,2025-12-15,140,PREDOSE,1
STUDY001,EG,STUDY001-SUBJ0054,24,PR,PR Interval,153.4,msec,153.4,153.4,msec,,CHEST,SUPINE,12-LEAD ECG,,,NORMAL,END OF TREATMENT,5,2025-12-15,140,PREDOSE,1
STUDY001,EG,STUDY001-SUBJ0054,25,QRS,QRS Duration,92.8,msec,92.8,92.8,msec,,CHEST,SUPINE,12-LEAD ECG,,,NORMAL,END OF TREATMENT,5,2025-12-15,140,PREDOSE,1
STUDY001,EG,STUDY001-SUBJ0055,1,HR,Heart Rate,63.1,beats/min,63.1,63.1,beats/min,,CHEST,SUPINE,12-LEAD ECG,,,NORMAL,SCREENING,1,2025-03-03,-14,PREDOSE,1
STUDY001,EG,STUDY001-SUBJ0055,2,QT,QT Interval,397.0,msec,397.0,397.0,msec,,CHEST,SUPINE,12-LEAD ECG,,,NORMAL,SCREENING,1,2025-03-03,-14,PREDOSE,1
STUDY001,EG,STUDY001-SUBJ0055,3,QTC,QTc Interval,402.8,msec,402.8,402.8,msec,,CHEST,SUPINE,12-LEAD ECG,,,NORMAL,SCREENING,1,2025-03-03,-14,PREDOSE,1
STUDY001,EG,STUDY001-SUBJ0055,4,PR,PR Interval,143.2,msec,143.2,143.2,msec,,CHEST,SUPINE,12-LEAD ECG,TECHNICAL FAILURE,,NORMAL,SCREENING,1,2025-03-03,-14,PREDOSE,1
STUDY001,EG,STUDY001-SUBJ0055,5,QRS,QRS Duration,88.2,msec,88.2,88.2,msec,,CHEST,SUPINE,12-LEAD ECG,,,NORMAL,SCREENING,1,2025-03-03,-14,PREDOSE,1
STUDY001,EG,STUDY001-SUBJ0055,6,HR,Heart Rate,63.7,beats/min,63.7,63.7,beats/min,Y,CHEST,SUPINE,12-LEAD ECG,,,NORMAL,BASELINE,2,2025-03-17,1,PREDOSE,1
STUDY001,EG,STUDY001-SUBJ0055,7,QT,QT Interval,390.1,msec,390.1,390.1,msec,Y,CHEST,SUPINE,12-LEAD ECG,,,NORMAL,BASELINE,2,2025-03-17,1,PREDOSE,1
STUDY001,EG,STUDY001-SUBJ0055,8,QTC,QTc Interval,398.4,msec,398.4,398.4,msec,Y,CHEST,SUPINE,12-LEAD ECG,,,NORMAL,BASELINE,2,2025-03-17,1,PREDOSE,1
STUDY001,EG,STUDY001-SUBJ0055,9,PR,PR Interval,146.4,msec,146.4,146.4,msec,Y,CHEST,SUPINE,12-LEAD ECG,,,NORMAL,BASELINE,2,2025-03-17,1,PREDOSE,1
STUDY001,EG,STUDY001-SUBJ0055,10,QRS,QRS Duration,86.9,msec,86.9,86.9,msec,Y,CHEST,SUPINE,12-LEAD ECG,,,NORMAL,BASELINE,2,2025-03-17,1,PREDOSE,1
STUDY001,EG,STUDY001-SUBJ0055,11,HR,Heart Rate,65.8,beats/min,65.8,65.8,beats/min,,CHEST,SUPINE,12-LEAD ECG,,,NORMAL,WEEK 4,3,2025-04-13,28,PREDOSE,1
STUDY001,EG,STUDY001-SUBJ0055,12,QT,QT Interval,392.7,msec,392.7,392.7,msec,,CHEST,SUPINE,12-LEAD ECG,,,NORMAL,WEEK 4,3,2025-04-13,28,PREDOSE,1
STUDY001,EG,STUDY001-SUBJ0055,13,QTC,QTc Interval,397.6,msec,397.6,397.6,msec,,CHEST,SUPINE,12-LEAD ECG,,,NORMAL,WEEK 4,3,2025-04-13,28,PREDOSE,1
STUDY001,EG,STUDY001-SUBJ0055,14,PR,PR Interval,142.8,msec,142.8,142.8,msec,,CHEST,SUPINE,12-LEAD ECG,,,NORMAL,WEEK 4,3,2025-04-13,28,PREDOSE,1
STUDY001,EG,STUDY001-SUBJ0055,15,QRS,QRS Duration,81.5,msec,81.5,81.5,msec,,CHEST,SUPINE,12-LEAD ECG,,,NORMAL,WEEK 4,3,2025-04-13,28,PREDOSE,1
STUDY001,EG,STUDY001-SUBJ0055,16,HR,Heart Rate,63.5,beats/min,63.5,63.5,beats/min,,CHEST,SUPINE,12-LEAD ECG,TECHNICAL FAILURE,,NORMAL,WEEK 12,4,2025-06-08,84,PREDOSE,1
STUDY001,EG,STUDY001-SUBJ0055,17,QT,QT Interval,395.2,msec,395.2,395.2,msec,,CHEST,SUPINE,12-LEAD ECG,TECHNICAL FAILURE,,NORMAL,WEEK 12,4,2025-06-08,84,PREDOSE,1
STUDY001,EG,STUDY001-SUBJ0055,18,QTC,QTc Interval,401.0,msec,401.0,401.0,msec,,CHEST,SUPINE,12-LEAD ECG,,,NORMAL,WEEK 12,4,2025-06-08,84,PREDOSE,1
STUDY001,EG,STUDY001-SUBJ0055,19,PR,PR Interval,142.3,msec,142.3,142.3,msec,,CHEST,SUPINE,12-LEAD ECG,,,NORMAL,WEEK 12,4,2025-06-08,84,PREDOSE,1
STUDY001,EG,STUDY001-SUBJ0055,20,QRS,QRS Duration,88.9,msec,88.9,88.9,msec,,CHEST,SUPINE,12-LEAD ECG,,,NORMAL,WEEK 12,4,2025-06-08,84,PREDOSE,1
STUDY001,EG,STUDY001-SUBJ0055,21,HR,Heart Rate,64.6,beats/min,64.6,64.6,beats/min,,CHEST,SUPINE,12-LEAD ECG,,,NORMAL,END OF TREATMENT,5,2025-08-03,140,PREDOSE,1
STUDY001,EG,STUDY001-SUBJ0055,22,QT,QT Interval,397.3,msec,397.3,397.3,msec,,CHEST,SUPINE,12-LEAD ECG,,,NORMAL,END OF TREATMENT,5,2025-08-03,140,PREDOSE,1
STUDY001,EG,STUDY001-SUBJ0055,23,QTC,QTc Interval,400.5,msec,400.5,400.5,msec,,CHEST,SUPINE,12-LEAD ECG,,,NORMAL,END OF TREATMENT,5,2025-08-03,140,PREDOSE,1
STUDY001,EG,STUDY001-SUBJ0055,24,PR,PR Interval,142.4,msec,142.4,142.4,msec,,CHEST,SUPINE,12-LEAD ECG,,,NORMAL,END OF TREATMENT,5,2025-08-03,140,PREDOSE,1
STUDY001,EG,STUDY001-SUBJ0055,25,QRS,QRS Duration,87.4,msec,87.4,87.4,msec,,CHEST,SUPINE,12-LEAD ECG,,,NORMAL,END OF TREATMENT,5,2025-08-03,140,PREDOSE,1
STUDY001,EG,STUDY001-SUBJ0056,1,HR,Heart Rate,65.8,beats/min,65.8,65.8,beats/min,,CHEST,SUPINE,12-LEAD ECG,,,NORMAL,SCREENING,1,2025-01-26,-14,PREDOSE,1
STUDY001,EG,STUDY001-SUBJ0056,2,QT,QT Interval,382.8,msec,382.8,382.8,msec,,CHEST,SUPINE,12-LEAD ECG,,,NORMAL,SCREENING,1,2025-01-26,-14,PREDOSE,1
STUDY001,EG,STUDY001-SUBJ0056,3,QTC,QTc Interval,417.2,msec,417.2,417.2,msec,,CHEST,SUPINE,12-LEAD ECG,,,NORMAL,SCREENING,1,2025-01-26,-14,PREDOSE,1
STUDY001,EG,STUDY001-SUBJ0056,4,PR,PR Interval,162.6,msec,162.6,162.6,msec,,CHEST,SUPINE,12-LEAD ECG,,,NORMAL,SCREENING,1,2025-01-26,-14,PREDOSE,1
STUDY001,EG,STUDY001-SUBJ0056,5,QRS,QRS Duration,84.4,msec,84.4,84.4,msec,,CHEST,SUPINE,12-LEAD ECG,,,NORMAL,SCREENING,1,2025-01-26,-14,PREDOSE,1
STUDY001,EG,STUDY001-SUBJ0056,6,HR,Heart Rate,66.3,beats/min,66.3,66.3,beats/min,Y,CHEST,SUPINE,12-LEAD ECG,,,NORMAL,BASELINE,2,2025-02-09,1,PREDOSE,1
STUDY001,EG,STUDY001-SUBJ0056,7,QT,QT Interval,378.5,msec,378.5,378.5,msec,Y,CHEST,SUPINE,12-LEAD ECG,,,NORMAL,BASELINE,2,2025-02-09,1,PREDOSE,1
STUDY001,EG,STUDY001-SUBJ0056,8,QTC,QTc Interval,420.2,msec,420.2,420.2,msec,Y,CHEST,SUPINE,12-LEAD ECG,,,NORMAL,BASELINE,2,2025-02-09,1,PREDOSE,1
STUDY001,EG,STUDY001-SUBJ0056,9,PR,PR Interval,169.3,msec,169.3,169.3,msec,Y,CHEST,SUPINE,12-LEAD ECG,,,NORMAL,BASELINE,2,2025-02-09,1,PREDOSE,1
STUDY001,EG,STUDY001-SUBJ0056,10,QRS,QRS Duration,84.3,msec,84.3,84.3,msec,Y,CHEST,SUPINE,12-LEAD ECG,,,NORMAL,BASELINE,2,2025-02-09,1,PREDOSE,1
STUDY001,EG,STUDY001-SUBJ0056,11,HR,Heart Rate,69.4,beats/min,69.4,69.4,beats/min,,CHEST,SUPINE,12-LEAD ECG,,,NORMAL,WEEK 4,3,2025-03-08,28,PREDOSE,1
STUDY001,EG,STUDY001-SUBJ0056,12,QT,QT Interval,381.8,msec,381.8,381.8,msec,,CHEST,SUPINE,12-LEAD ECG,,,NORMAL,WEEK 4,3,2025-03-08,28,PREDOSE,1
STUDY001,EG,STUDY001-SUBJ0056,13,QTC,QTc Interval,426.0,msec,426.0,426.0,msec,,CHEST,SUPINE,12-LEAD ECG,,,NORMAL,WEEK 4,3,2025-03-08,28,PREDOSE,1
STUDY001,EG,STUDY001-SUBJ0056,14,PR,PR Interval,166.0,msec,166.0,166.0,msec,,CHEST,SUPINE,12-LEAD ECG,,,NORMAL,WEEK 4,3,2025-03-08,28,PREDOSE,1
STUDY001,EG,STUDY001-SUBJ0056,15,QRS,QRS Duration,83.8,msec,83.8,83.8,msec,,CHEST,SUPINE,12-LEAD ECG,TECHNICAL FAILURE,,NORMAL,WEEK 4,3,2025-03-08,28,PREDOSE,1
STUDY001,EG,STUDY001-SUBJ0056,16,HR,Heart Rate,65.7,beats/min,65.7,65.7,beats/min,,CHEST,SUPINE,12-LEAD ECG,,,NORMAL,WEEK 12,4,2025-05-03,84,PREDOSE,1
STUDY001,EG,STUDY001-SUBJ0056,17,QT,QT Interval,383.7,msec,383.7,383.7,msec,,CHEST,SUPINE,12-LEAD ECG,,,NORMAL,WEEK 12,4,2025-05-03,84,PREDOSE,1
STUDY001,EG,STUDY001-SUBJ0056,18,QTC,QTc Interval,420.4,msec,420.4,420.4,msec,,CHEST,SUPINE,12-LEAD ECG,,,NORMAL,WEEK 12,4,2025-05-03,84,PREDOSE,1
STUDY001,EG,STUDY001-SUBJ0056,19,PR,PR Interval,164.9,msec,164.9,164.9,msec,,CHEST,SUPINE,12-LEAD ECG,,,NORMAL,WEEK 12,4,2025-05-03,84,PREDOSE,1
STUDY001,EG,STUDY001-SUBJ0056,20,QRS,QRS Duration,78.1,msec,78.1,78.1,msec,,CHEST,SUPINE,12-LEAD ECG,,,NORMAL,WEEK 12,4,2025-05-03,84,PREDOSE,1
STUDY001,EG,STUDY001-SUBJ0056,21,HR,Heart Rate,70.5,beats/min,70.5,70.5,beats/min,,CHEST,SUPINE,12-LEAD ECG,,,NORMAL,END OF TREATMENT,5,2025-06-28,140,PREDOSE,1
STUDY001,EG,STUDY001-SUBJ0056,22,QT,QT Interval,386.5,msec,386.5,386.5,msec,,CHEST,SUPINE,12-LEAD ECG,,,NORMAL,END OF TREATMENT,5,2025-06-28,140,PREDOSE,1
STUDY001,EG,STUDY001-SUBJ0056,23,QTC,QTc Interval,417.9,msec,417.9,417.9,msec,,CHEST,SUPINE,12-LEAD ECG,,,NORMAL,END OF TREATMENT,5,2025-06-28,140,PREDOSE,1
STUDY001,EG,STUDY001-SUBJ0056,24,PR,PR Interval,165.8,msec,165.8,165.8,msec,,CHEST,SUPINE,12-LEAD ECG,,,NORMAL,END OF TREATMENT,5,2025-06-28,140,PREDOSE,1
STUDY001,EG,STUDY001-SUBJ0056,25,QRS,QRS Duration,83.6,msec,83.6,83.6,msec,,CHEST,SUPINE,12-LEAD ECG,,,NORMAL,END OF TREATMENT,5,2025-06-28,140,PREDOSE,1
STUDY001,EG,STUDY001-SUBJ0057,1,HR,Heart Rate,72.5,beats/min,72.5,72.5,beats/min,,CHEST,SUPINE,12-LEAD ECG,,,NORMAL,SCREENING,1,2025-07-05,-14,PREDOSE,1
STUDY001,EG,STUDY001-SUBJ0057,2,QT,QT Interval,412.6,msec,412.6,412.6,msec,,CHEST,SUPINE,12-LEAD ECG,,,NORMAL,SCREENING,1,2025-07-05,-14,PREDOSE,1
STUDY001,EG,STUDY001-SUBJ0057,3,QTC,QTc Interval,422.0,msec,422.0,422.0,msec,,CHEST,SUPINE,12-LEAD ECG,,,NORMAL,SCREENING,1,2025-07-05,-14,PREDOSE,1
STUDY001,EG,STUDY001-SUBJ0057,4,PR,PR Interval,140.0,msec,140.0,140.0,msec,,CHEST,SUPINE,12-LEAD ECG,,,NORMAL,SCREENING,1,2025-07-05,-14,PREDOSE,1
STUDY001,EG,STUDY001-SUBJ0057,5,QRS,QRS Duration,84.4,msec,84.4,84.4,msec,,CHEST,SUPINE,12-LEAD ECG,,,NORMAL,SCREENING,1,2025-07-05,-14,PREDOSE,1
STUDY001,EG,STUDY001-SUBJ0057,6,HR,Heart Rate,65.6,beats/min,65.6,65.6,beats/min,Y,CHEST,SUPINE,12-LEAD ECG,,,NORMAL,BASELINE,2,2025-07-19,1,PREDOSE,1
STUDY001,EG,STUDY001-SUBJ0057,7,QT,QT Interval,410.0,msec,410.0,410.0,msec,Y,CHEST,SUPINE,12-LEAD ECG,,,NORMAL,BASELINE,2,2025-07-19,1,PREDOSE,1
STUDY001,EG,STUDY001-SUBJ0057,8,QTC,QTc Interval,423.4,msec,423.4,423.4,msec,Y,CHEST,SUPINE,12-LEAD ECG,,,NORMAL,BASELINE,2,2025-07-19,1,PREDOSE,1
STUDY001,EG,STUDY001-SUBJ0057,9,PR,PR Interval,138.3,msec,138.3,138.3,msec,Y,CHEST,SUPINE,12-LEAD ECG,,,NORMAL,BASELINE,2,2025-07-19,1,PREDOSE,1
STUDY001,EG,STUDY001-SUBJ0057,10,QRS,QRS Duration,78.4,msec,78.4,78.4,msec,Y,CHEST,SUPINE,12-LEAD ECG,,,NORMAL,BASELINE,2,2025-07-19,1,PREDOSE,1
STUDY001,EG,STUDY001-SUBJ0057,11,HR,Heart Rate,69.2,beats/min,69.2,69.2,beats/min,,CHEST,SUPINE,12-LEAD ECG,,,NORMAL,WEEK 4,3,2025-08-15,28,PREDOSE,1
STUDY001,EG,STUDY001-SUBJ0057,12,QT,QT Interval,414.7,msec,414.7,414.7,msec,,CHEST,SUPINE,12-LEAD ECG,,,NORMAL,WEEK 4,3,2025-08-15,28,PREDOSE,1
STUDY001,EG,STUDY001-SUBJ0057,13,QTC,QTc Interval,423.6,msec,423.6,423.6,msec,,CHEST,SUPINE,12-LEAD ECG,,,NORMAL,WEEK 4,3,2025-08-15,28,PREDOSE,1
STUDY001,EG,STUDY001-SUBJ0057,14,PR,PR Interval,138.8,msec,138.8,138.8,msec,,CHEST,SUPINE,12-LEAD ECG,,,NORMAL,WEEK 4,3,2025-08-15,28,PREDOSE,1
STUDY001,EG,STUDY001-SUBJ0057,15,QRS,QRS Duration,81.8,msec,81.8,81.8,msec,,CHEST,SUPINE,12-LEAD ECG,,,NORMAL,WEEK 4,3,2025-08-15,28,PREDOSE,1
STUDY001,EG,STUDY001-SUBJ0057,16,HR,Heart Rate,73.2,beats/min,73.2,73.2,beats/min,,CHEST,SUPINE,12-LEAD ECG,,NOT DONE,NORMAL,WEEK 12,4,2025-10-10,84,PREDOSE,1
STUDY001,EG,STUDY001-SUBJ0057,17,QT,QT Interval,416.5,msec,416.5,416.5,msec,,CHEST,SUPINE,12-LEAD ECG,,,NORMAL,WEEK 12,4,2025-10-10,84,PREDOSE,1
STUDY001,EG,STUDY001-SUBJ0057,18,QTC,QTc Interval,418.5,msec,418.5,418.5,msec,,CHEST,SUPINE,12-LEAD ECG,,,NORMAL,WEEK 12,4,2025-10-10,84,PREDOSE,1
STUDY001,EG,STUDY001-SUBJ0057,19,PR,PR Interval,139.6,msec,139.6,139.6,msec,,CHEST,SUPINE,12-LEAD ECG,,,NORMAL,WEEK 12,4,2025-10-10,84,PREDOSE,1
STUDY001,EG,STUDY001-SUBJ0057,20,QRS,QRS Duration,76.5,msec,76.5,76.5,msec,,CHEST,SUPINE,12-LEAD ECG,,,NORMAL,WEEK 12,4,2025-10-10,84,PREDOSE,1
STUDY001,EG,STUDY001-SUBJ0057,21,HR,Heart Rate,73.8,beats/min,73.8,73.8,beats/min,,CHEST,SUPINE,12-LEAD ECG,,,NORMAL,END OF TREATMENT,5,2025-12-05,140,PREDOSE,1
STUDY001,EG,STUDY001-SUBJ0057,22,QT,QT Interval,410.7,msec,410.7,410.7,msec,,CHEST,SUPINE,12-LEAD ECG,,,NORMAL,END OF TREATMENT,5,2025-12-05,140,PREDOSE,1
STUDY001,EG,STUDY001-SUBJ0057,23,QTC,QTc Interval,418.5,msec,418.5,418.5,msec,,CHEST,SUPINE,12-LEAD ECG,,,NORMAL,END OF TREATMENT,5,2025-12-05,140,PREDOSE,1
STUDY001,EG,STUDY001-SUBJ0057,24,PR,PR Interval,137.8,msec,137.8,137.8,msec,,CHEST,SUPINE,12-LEAD ECG,,,NORMAL,END OF TREATMENT,5,2025-12-05,140,PREDOSE,1
STUDY001,EG,STUDY001-SUBJ0057,25,QRS,QRS Duration,84.2,msec,84.2,84.2,msec,,CHEST,SUPINE,12-LEAD ECG,,,NORMAL,END OF TREATMENT,5,2025-12-05,140,PREDOSE,1
STUDY001,EG,STUDY001-SUBJ0058,1,HR,Heart Rate,70.2,beats/min,70.2,70.2,beats/min,,CHEST,SUPINE,12-LEAD ECG,,,NORMAL,SCREENING,1,2025-01-26,-14,PREDOSE,1
STUDY001,EG,STUDY001-SUBJ0058,2,QT,QT Interval,429.9,msec,429.9,429.9,msec,,CHEST,SUPINE,12-LEAD ECG,,,NORMAL,SCREENING,1,2025-01-26,-14,PREDOSE,1
STUDY001,EG,STUDY001-SUBJ0058,3,QTC,QTc Interval,429.2,msec,429.2,429.2,msec,,CHEST,SUPINE,12-LEAD ECG,,,NORMAL,SCREENING,1,2025-01-26,-14,PREDOSE,1
STUDY001,EG,STUDY001-SUBJ0058,4,PR,PR Interval,148.1,msec,148.1,148.1,msec,,CHEST,SUPINE,12-LEAD ECG,,,NORMAL,SCREENING,1,2025-01-26,-14,PREDOSE,1
STUDY001,EG,STUDY001-SUBJ0058,5,QRS,QRS Duration,93.5,msec,93.5,93.5,msec,,CHEST,SUPINE,12-LEAD ECG,,,NORMAL,SCREENING,1,2025-01-26,-14,PREDOSE,1
STUDY001,EG,STUDY001-SUBJ0058,6,HR,Heart Rate,68.6,beats/min,68.6,68.6,beats/min,Y,CHEST,SUPINE,12-LEAD ECG,,,NORMAL,BASELINE,2,2025-02-09,1,PREDOSE,1
STUDY001,EG,STUDY001-SUBJ0058,7,QT,QT Interval,430.2,msec,430.2,430.2,msec,Y,CHEST,SUPINE,12-LEAD ECG,,,NORMAL,BASELINE,2,2025-02-09,1,PREDOSE,1
STUDY001,EG,STUDY001-SUBJ0058,8,QTC,QTc Interval,426.9,msec,426.9,426.9,msec,Y,CHEST,SUPINE,12-LEAD ECG,,,NORMAL,BASELINE,2,2025-02-09,1,PREDOSE,1
STUDY001,EG,STUDY001-SUBJ0058,9,PR,PR Interval,146.7,msec,146.7,146.7,msec,Y,CHEST,SUPINE,12-LEAD ECG,,,NORMAL,BASELINE,2,2025-02-09,1,PREDOSE,1
STUDY001,EG,STUDY001-SUBJ0058,10,QRS,QRS Duration,90.1,msec,90.1,90.1,msec,Y,CHEST,SUPINE,12-LEAD ECG,,,NORMAL,BASELINE,2,2025-02-09,1,PREDOSE,1
STUDY001,EG,STUDY001-SUBJ0058,11,HR,Heart Rate,65.1,beats/min,65.1,65.1,beats/min,,CHEST,SUPINE,12-LEAD ECG,,,NORMAL,WEEK 4,3,2025-03-08,28,PREDOSE,1
STUDY001,EG,STUDY001-SUBJ0058,12,QT,QT Interval,431.4,msec,431.4,431.4,msec,,CHEST,SUPINE,12-LEAD ECG,,,NORMAL,WEEK 4,3,2025-03-08,28,PREDOSE,1
STUDY001,EG,STUDY001-SUBJ0058,13,QTC,QTc Interval,425.5,msec,425.5,425.5,msec,,CHEST,SUPINE,12-LEAD ECG,,,NORMAL,WEEK 4,3,2025-03-08,28,PREDOSE,1
STUDY001,EG,STUDY001-SUBJ0058,14,PR,PR Interval,153.3,msec,153.3,153.3,msec,,CHEST,SUPINE,12-LEAD ECG,,,NORMAL,WEEK 4,3,2025-03-08,28,PREDOSE,1
STUDY001,EG,STUDY001-SUBJ0058,15,QRS,QRS Duration,93.4,msec,93.4,93.4,msec,,CHEST,SUPINE,12-LEAD ECG,,,NORMAL,WEEK 4,3,2025-03-08,28,PREDOSE,1
STUDY001,EG,STUDY001-SUBJ0058,16,HR,Heart Rate,63.8,beats/min,63.8,63.8,beats/min,,CHEST,SUPINE,12-LEAD ECG,,,NORMAL,WEEK 12,4,2025-05-03,84,PREDOSE,1
STUDY001,EG,STUDY001-SUBJ0058,17,QT,QT Interval,425.9,msec,425.9,425.9,msec,,CHEST,SUPINE,12-LEAD ECG,,,NORMAL,WEEK 12,4,2025-05-03,84,PREDOSE,1
STUDY001,EG,STUDY001-SUBJ0058,18,QTC,QTc Interval,432.1,msec,432.1,432.1,msec,,CHEST,SUPINE,12-LEAD ECG,,,NORMAL,WEEK 12,4,2025-05-03,84,PREDOSE,1
STUDY001,EG,STUDY001-SUBJ0058,19,PR,PR Interval,150.6,msec,150.6,150.6,msec,,CHEST,SUPINE,12-LEAD ECG,,,NORMAL,WEEK 12,4,2025-05-03,84,PREDOSE,1
STUDY001,EG,STUDY001-SUBJ0058,20,QRS,QRS Duration,91.2,msec,91.2,91.2,msec,,CHEST,SUPINE,12-LEAD ECG,,,NORMAL,WEEK 12,4,2025-05-03,84,PREDOSE,1
STUDY001,EG,STUDY001-SUBJ0058,21,HR,Heart Rate,70.0,beats/min,70.0,70.0,beats/min,,CHEST,SUPINE,12-LEAD ECG,,,NORMAL,END OF TREATMENT,5,2025-06-28,140,PREDOSE,1
STUDY001,EG,STUDY001-SUBJ0058,22,QT,QT Interval,433.4,msec,433.4,433.4,msec,,CHEST,SUPINE,12-LEAD ECG,,,NORMAL,END OF TREATMENT,5,2025-06-28,140,PREDOSE,1
STUDY001,EG,STUDY001-SUBJ0058,23,QTC,QTc Interval,424.5,msec,424.5,424.5,msec,,CHEST,SUPINE,12-LEAD ECG,,,NORMAL,END OF TREATMENT,5,2025-06-28,140,PREDOSE,1
STUDY001,EG,STUDY001-SUBJ0058,24,PR,PR Interval,149.0,msec,149.0,149.0,msec,,CHEST,SUPINE,12-LEAD ECG,,,NORMAL,END OF TREATMENT,5,2025-06-28,140,PREDOSE,1
STUDY001,EG,STUDY001-SUBJ0058,25,QRS,QRS Duration,89.8,msec,89.8,89.8,msec,,CHEST,SUPINE,12-LEAD ECG,,,NORMAL,END OF TREATMENT,5,2025-06-28,140,PREDOSE,1
STUDY001,EG,STUDY001-SUBJ0059,1,HR,Heart Rate,76.9,beats/min,76.9,76.9,beats/min,,CHEST,SUPINE,12-LEAD ECG,,,NORMAL,SCREENING,1,2025-08-31,-14,PREDOSE,1
STUDY001,EG,STUDY001-SUBJ0059,2,QT,QT Interval,377.9,msec,377.9,377.9,msec,,CHEST,SUPINE,12-LEAD ECG,,,NORMAL,SCREENING,1,2025-08-31,-14,PREDOSE,1
STUDY001,EG,STUDY001-SUBJ0059,3,QTC,QTc Interval,407.1,msec,407.1,407.1,msec,,CHEST,SUPINE,12-LEAD ECG,,,NORMAL,SCREENING,1,2025-08-31,-14,PREDOSE,1
STUDY001,EG,STUDY001-SUBJ0059,4,PR,PR Interval,162.0,msec,162.0,162.0,msec,,CHEST,SUPINE,12-LEAD ECG,,,NORMAL,SCREENING,1,2025-08-31,-14,PREDOSE,1
STUDY001,EG,STUDY001-SUBJ0059,5,QRS,QRS Duration,87.5,msec,87.5,87.5,msec,,CHEST,SUPINE,12-LEAD ECG,,,NORMAL,SCREENING,1,2025-08-31,-14,PREDOSE,1
STUDY001,EG,STUDY001-SUBJ0059,6,HR,Heart Rate,74.0,beats/min,74.0,74.0,beats/min,Y,CHEST,SUPINE,12-LEAD ECG,,,NORMAL,BASELINE,2,2025-09-14,1,PREDOSE,1
STUDY001,EG,STUDY001-SUBJ0059,7,QT,QT Interval,380.8,msec,380.8,380.8,msec,Y,CHEST,SUPINE,12-LEAD ECG,,,NORMAL,BASELINE,2,2025-09-14,1,PREDOSE,1
STUDY001,EG,STUDY001-SUBJ0059,8,QTC,QTc Interval,406.6,msec,406.6,406.6,msec,Y,CHEST,SUPINE,12-LEAD ECG,,,NORMAL,BASELINE,2,2025-09-14,1,PREDOSE,1
STUDY001,EG,STUDY001-SUBJ0059,9,PR,PR Interval,163.3,msec,163.3,163.3,msec,Y,CHEST,SUPINE,12-LEAD ECG,,,NORMAL,BASELINE,2,2025-09-14,1,PREDOSE,1
STUDY001,EG,STUDY001-SUBJ0059,10,QRS,QRS Duration,88.2,msec,88.2,88.2,msec,Y,CHEST,SUPINE,12-LEAD ECG,,,NORMAL,BASELINE,2,2025-09-14,1,PREDOSE,1
STUDY001,EG,STUDY001-SUBJ0059,11,HR,Heart Rate,70.3,beats/min,70.3,70.3,beats/min,,CHEST,SUPINE,12-LEAD ECG,,,NORMAL,WEEK 4,3,2025-10-11,28,PREDOSE,1
STUDY001,EG,STUDY001-SUBJ0059,12,QT,QT Interval,384.1,msec,384.1,384.1,msec,,CHEST,SUPINE,12-LEAD ECG,,,NORMAL,WEEK 4,3,2025-10-11,28,PREDOSE,1
STUDY001,EG,STUDY001-SUBJ0059,13,QTC,QTc Interval,407.4,msec,407.4,407.4,msec,,CHEST,SUPINE,12-LEAD ECG,,,NORMAL,WEEK 4,3,2025-10-11,28,PREDOSE,1
STUDY001,EG,STUDY001-SUBJ0059,14,PR,PR Interval,167.8,msec,167.8,167.8,msec,,CHEST,SUPINE,12-LEAD ECG,,,NORMAL,WEEK 4,3,2025-10-11,28,PREDOSE,1
STUDY001,EG,STUDY001-SUBJ0059,15,QRS,QRS Duration,86.0,msec,86.0,86.0,msec,,CHEST,SUPINE,12-LEAD ECG,,,NORMAL,WEEK 4,3,2025-10-11,28,PREDOSE,1
STUDY001,EG,STUDY001-SUBJ0059,16,HR,Heart Rate,72.1,beats/min,72.1,72.1,beats/min,,CHEST,SUPINE,12-LEAD ECG,,,NORMAL,WEEK 12,4,2025-12-06,84,PREDOSE,1
STUDY001,EG,STUDY001-SUBJ0059,17,QT,QT Interval,377.0,msec,377.0,377.0,msec,,CHEST,SUPINE,12-LEAD ECG,TECHNICAL FAILURE,,NORMAL,WEEK 12,4,2025-12-06,84,PREDOSE,1
STUDY001,EG,STUDY001-SUBJ0059,18,QTC,QTc Interval,410.1,msec,410.1,410.1,msec,,CHEST,SUPINE,12-LEAD ECG,,,NORMAL,WEEK 12,4,2025-12-06,84,PREDOSE,1
STUDY001,EG,STUDY001-SUBJ0059,19,PR,PR Interval,163.2,msec,163.2,163.2,msec,,CHEST,SUPINE,12-LEAD ECG,,NOT DONE,NORMAL,WEEK 12,4,2025-12-06,84,PREDOSE,1
STUDY001,EG,STUDY001-SUBJ0059,20,QRS,QRS Duration,86.8,msec,86.8,86.8,msec,,CHEST,SUPINE,12-LEAD ECG,,,NORMAL,WEEK 12,4,2025-12-06,84,PREDOSE,1
STUDY001,EG,STUDY001-SUBJ0060,1,HR,Heart Rate,68.5,beats/min,68.5,68.5,beats/min,,CHEST,SUPINE,12-LEAD ECG,,,NORMAL,SCREENING,1,2025-03-19,-14,PREDOSE,1
STUDY001,EG,STUDY001-SUBJ0060,2,QT,QT Interval,374.4,msec,374.4,374.4,msec,,CHEST,SUPINE,12-LEAD ECG,TECHNICAL FAILURE,,NORMAL,SCREENING,1,2025-03-19,-14,PREDOSE,1
STUDY001,EG,STUDY001-SUBJ0060,3,QTC,QTc Interval,417.7,msec,417.7,417.7,msec,,CHEST,SUPINE,12-LEAD ECG,,NOT DONE,NORMAL,SCREENING,1,2025-03-19,-14,PREDOSE,1
STUDY001,EG,STUDY001-SUBJ0060,4,PR,PR Interval,149.3,msec,149.3,149.3,msec,,CHEST,SUPINE,12-LEAD ECG,,,NORMAL,SCREENING,1,2025-03-19,-14,PREDOSE,1
STUDY001,EG,STUDY001-SUBJ0060,5,QRS,QRS Duration,97.0,msec,97.0,97.0,msec,,CHEST,SUPINE,12-LEAD ECG,,,NORMAL,SCREENING,1,2025-03-19,-14,PREDOSE,1
STUDY001,EG,STUDY001-SUBJ0060,6,HR,Heart Rate,76.0,beats/min,76.0,76.0,beats/min,Y,CHEST,SUPINE,12-LEAD ECG,,,NORMAL,BASELINE,2,2025-04-02,1,PREDOSE,1
STUDY001,EG,STUDY001-SUBJ0060,7,QT,QT Interval,374.4,msec,374.4,374.4,msec,Y,CHEST,SUPINE,12-LEAD ECG,,,NORMAL,BASELINE,2,2025-04-02,1,PREDOSE,1
STUDY001,EG,STUDY001-SUBJ0060,8,QTC,QTc Interval,411.1,msec,411.1,411.1,msec,Y,CHEST,SUPINE,12-LEAD ECG,,,NORMAL,BASELINE,2,2025-04-02,1,PREDOSE,1
STUDY001,EG,STUDY001-SUBJ0060,9,PR,PR Interval,146.3,msec,146.3,146.3,msec,Y,CHEST,SUPINE,12-LEAD ECG,,,NORMAL,BASELINE,2,2025-04-02,1,PREDOSE,1
