STUDYID,DOMAIN,USUBJID,LBSEQ,LBREFID,LBTESTCD,LBTEST,LBCAT,LBORRES,LBORRESU,LBORNRLO,LBORNRHI,LBSTRESC,LBSTRESN,LBSTRESU,LBSTNRLO,LBSTNRHI,LBNRIND,LBBLFL,VISIT,VISITNUM,LBDTC,LBDY
STUDY001,LB,STUDY001-SUBJ0001,1,L00001,HGB,Hemoglobin,HEMATOLOGY,12.36,g/dL,13.5,17.5,12.36,12.36,g/dL,13.5,17.5,LOW,,SCREENING,1,11/14/2025,-14
STUDY001,LB,STUDY001-SUBJ0001,2,L00002,HCT,Hematocrit,HEMATOLOGY,41.79,%,41,51,41.79,41.79,%,41,51,NORMAL,,SCREENING,1,11/14/2025,-14
STUDY001,LB,STUDY001-SUBJ0001,3,L00003,WBC,White Blood Cell Count,HEMATOLOGY,6.64,10^9/L,4.5,11,6.64,6.64,10^9/L,4.5,11,NORMAL,,SCREENING,1,11/14/2025,-14
STUDY001,LB,STUDY001-SUBJ0001,4,L00004,PLT,Platelet Count,HEMATOLOGY,295.27,10^9/L,150,450,295.27,295.27,10^9/L,150,450,NORMAL,,SCREENING,1,11/14/2025,-14
STUDY001,LB,STUDY001-SUBJ0001,5,L00005,GLUC,Glucose,CHEMISTRY,86.16,mg/dL,70,100,86.16,86.16,mg/dL,70,100,NORMAL,,SCREENING,1,11/14/2025,-14
STUDY001,LB,STUDY001-SUBJ0001,6,L00006,BUN,Blood Urea Nitrogen,CHEMISTRY,14.94,mg/dL,7,20,14.94,14.94,mg/dL,7,20,NORMAL,,SCREENING,1,11/14/2025,-14
STUDY001,LB,STUDY001-SUBJ0001,7,L00007,CREAT,Creatinine,CHEMISTRY,0.79,mg/dL,0.6,1.2,0.79,0.79,mg/dL,0.6,1.2,NORMAL,,SCREENING,1,11/14/2025,-14
STUDY001,LB,STUDY001-SUBJ0001,8,L00008,BILI,Total Bilirubin,CHEMISTRY,0.72,mg/dL,0.1,1.2,0.72,0.72,mg/dL,0.1,1.2,NORMAL,,SCREENING,1,11/14/2025,-14
STUDY001,LB,STUDY001-SUBJ0001,9,L00009,ALP,Alkaline Phosphatase,CHEMISTRY,84.05,U/L,44,147,84.05,84.05,U/L,44,147,NORMAL,,SCREENING,1,11/14/2025,-14
STUDY001,LB,STUDY001-SUBJ0001,10,L00010,ALT,Alanine Aminotransferase,CHEMISTRY,25.84,U/L,7,56,25.84,25.84,U/L,7,56,NORMAL,,SCREENING,1,11/14/2025,-14
STUDY001,LB,STUDY001-SUBJ0001,11,L00011,HGB,Hemoglobin,HEMATOLOGY,12.36,g/dL,13.5,17.5,12.36,12.36,g/dL,13.5,17.5,LOW,Y,BASELINE,2,11/28/2025,1
STUDY001,LB,STUDY001-SUBJ0001,12,L00012,HCT,Hematocrit,HEMATOLOGY,41.66,%,41,51,41.66,41.66,%,41,51,NORMAL,Y,BASELINE,2,11/28/2025,1
STUDY001,LB,STUDY001-SUBJ0001,13,L00013,WBC,White Blood Cell Count,HEMATOLOGY,6.68,10^9/L,4.5,11,6.68,6.68,10^9/L,4.5,11,NORMAL,Y,BASELINE,2,11/28/2025,1
STUDY001,LB,STUDY001-SUBJ0001,14,L00014,PLT,Platelet Count,HEMATOLOGY,296.52,10^9/L,150,450,296.52,296.52,10^9/L,150,450,NORMAL,Y,BASELINE,2,11/28/2025,1
STUDY001,LB,STUDY001-SUBJ0001,15,L00015,GLUC,Glucose,CHEMISTRY,84.38,mg/dL,70,100,84.38,84.38,mg/dL,70,100,NORMAL,Y,BASELINE,2,11/28/2025,1
STUDY001,LB,STUDY001-SUBJ0001,16,L00016,BUN,Blood Urea Nitrogen,CHEMISTRY,15.37,mg/dL,7,20,15.37,15.37,mg/dL,7,20,NORMAL,Y,BASELINE,2,11/28/2025,1
STUDY001,LB,STUDY001-SUBJ0001,17,L00017,CREAT,Creatinine,CHEMISTRY,0.72,mg/dL,0.6,1.2,0.72,0.72,mg/dL,0.6,1.2,NORMAL,Y,BASELINE,2,11/28/2025,1
STUDY001,LB,STUDY001-SUBJ0001,18,L00018,BILI,Total Bilirubin,CHEMISTRY,0.69,mg/dL,0.1,1.2,0.69,0.69,mg/dL,0.1,1.2,NORMAL,Y,BASELINE,2,11/28/2025,1
STUDY001,LB,STUDY001-SUBJ0001,19,L00019,ALP,Alkaline Phosphatase,CHEMISTRY,84.44,U/L,44,147,84.44,84.44,U/L,44,147,NORMAL,Y,BASELINE,2,11/28/2025,1
STUDY001,LB,STUDY001-SUBJ0001,20,L00020,ALT,Alanine Aminotransferase,CHEMISTRY,25.79,U/L,7,56,25.79,25.79,U/L,7,56,NORMAL,Y,BASELINE,2,11/28/2025,1
STUDY001,LB,STUDY001-SUBJ0001,21,L00021,HGB,Hemoglobin,HEMATOLOGY,12.36,g/dL,13.5,17.5,12.36,12.36,g/dL,13.5,17.5,LOW,,WEEK 1,3,12/4/2025,7
STUDY001,LB,STUDY001-SUBJ0001,22,L00022,HCT,Hematocrit,HEMATOLOGY,41.26,%,41,51,41.26,41.26,%,41,51,NORMAL,,WEEK 1,3,12/4/2025,7
STUDY001,LB,STUDY001-SUBJ0001,23,L00023,WBC,White Blood Cell Count,HEMATOLOGY,6.62,10^9/L,4.5,11,6.62,6.62,10^9/L,4.5,11,NORMAL,,WEEK 1,3,12/4/2025,7
STUDY001,LB,STUDY001-SUBJ0001,24,L00024,PLT,Platelet Count,HEMATOLOGY,303.41,10^9/L,150,450,303.41,303.41,10^9/L,150,450,NORMAL,,WEEK 1,3,12/4/2025,7
STUDY001,LB,STUDY001-SUBJ0001,25,L00025,GLUC,Glucose,CHEMISTRY,85.26,mg/dL,70,100,85.26,85.26,mg/dL,70,100,NORMAL,,WEEK 1,3,12/4/2025,7
STUDY001,LB,STUDY001-SUBJ0001,26,L00026,BUN,Blood Urea Nitrogen,CHEMISTRY,15.39,mg/dL,7,20,15.39,15.39,mg/dL,7,20,NORMAL,,WEEK 1,3,12/4/2025,7
STUDY001,LB,STUDY001-SUBJ0001,27,L00027,CREAT,Creatinine,CHEMISTRY,0.77,mg/dL,0.6,1.2,0.77,0.77,mg/dL,0.6,1.2,NORMAL,,WEEK 1,3,12/4/2025,7
STUDY001,LB,STUDY001-SUBJ0001,28,L00028,BILI,Total Bilirubin,CHEMISTRY,0.7,mg/dL,0.1,1.2,0.7,0.7,mg/dL,0.1,1.2,NORMAL,,WEEK 1,3,12/4/2025,7
STUDY001,LB,STUDY001-SUBJ0001,29,L00029,ALP,Alkaline Phosphatase,CHEMISTRY,83.1,U/L,44,147,83.1,83.1,U/L,44,147,NORMAL,,WEEK 1,3,12/4/2025,7
STUDY001,LB,STUDY001-SUBJ0001,30,L00030,ALT,Alanine Aminotransferase,CHEMISTRY,23.99,U/L,7,56,23.99,23.99,U/L,7,56,NORMAL,,WEEK 1,3,12/4/2025,7
STUDY001,LB,STUDY001-SUBJ0001,31,L00031,HGB,Hemoglobin,HEMATOLOGY,12.39,g/dL,13.5,17.5,12.39,12.39,g/dL,13.5,17.5,LOW,,WEEK 2,4,12/11/2025,14
STUDY001,LB,STUDY001-SUBJ0001,32,L00032,HCT,Hematocrit,HEMATOLOGY,41.58,%,41,51,41.58,41.58,%,41,51,NORMAL,,WEEK 2,4,12/11/2025,14
STUDY001,LB,STUDY001-SUBJ0001,33,L00033,WBC,White Blood Cell Count,HEMATOLOGY,6.9,10^9/L,4.5,11,6.9,6.9,10^9/L,4.5,11,NORMAL,,WEEK 2,4,12/11/2025,14
STUDY001,LB,STUDY001-SUBJ0001,34,L00034,PLT,Platelet Count,HEMATOLOGY,302.31,10^9/L,150,450,302.31,302.31,10^9/L,150,450,NORMAL,,WEEK 2,4,12/11/2025,14
STUDY001,LB,STUDY001-SUBJ0001,35,L00035,GLUC,Glucose,CHEMISTRY,85.83,mg/dL,70,100,85.83,85.83,mg/dL,70,100,NORMAL,,WEEK 2,4,12/11/2025,14
STUDY001,LB,STUDY001-SUBJ0001,36,L00036,BUN,Blood Urea Nitrogen,CHEMISTRY,15.32,mg/dL,7,20,15.32,15.32,mg/dL,7,20,NORMAL,,WEEK 2,4,12/11/2025,14
STUDY001,LB,STUDY001-SUBJ0001,37,L00037,CREAT,Creatinine,CHEMISTRY,0.78,mg/dL,0.6,1.2,0.78,0.78,mg/dL,0.6,1.2,NORMAL,,WEEK 2,4,12/11/2025,14
STUDY001,LB,STUDY001-SUBJ0001,38,L00038,BILI,Total Bilirubin,CHEMISTRY,0.69,mg/dL,0.1,1.2,0.69,0.69,mg/dL,0.1,1.2,NORMAL,,WEEK 2,4,12/11/2025,14
STUDY001,LB,STUDY001-SUBJ0001,39,L00039,ALP,Alkaline Phosphatase,CHEMISTRY,82.94,U/L,44,147,82.94,82.94,U/L,44,147,NORMAL,,WEEK 2,4,12/11/2025,14
STUDY001,LB,STUDY001-SUBJ0001,40,L00040,ALT,Alanine Aminotransferase,CHEMISTRY,24.61,U/L,7,56,24.61,24.61,U/L,7,56,NORMAL,,WEEK 2,4,12/11/2025,14
STUDY001,LB,STUDY001-SUBJ0001,41,L00041,HGB,Hemoglobin,HEMATOLOGY,12.26,g/dL,13.5,17.5,12.26,12.26,g/dL,13.5,17.5,LOW,,WEEK 4,5,12/25/2025,28
STUDY001,LB,STUDY001-SUBJ0001,42,L00042,HCT,Hematocrit,HEMATOLOGY,41.47,%,41,51,41.47,41.47,%,41,51,NORMAL,,WEEK 4,5,12/25/2025,28
STUDY001,LB,STUDY001-SUBJ0001,43,L00043,WBC,White Blood Cell Count,HEMATOLOGY,6.53,10^9/L,4.5,11,6.53,6.53,10^9/L,4.5,11,NORMAL,,WEEK 4,5,12/25/2025,28
STUDY001,LB,STUDY001-SUBJ0001,44,L00044,PLT,Platelet Count,HEMATOLOGY,299.06,10^9/L,150,450,299.06,299.06,10^9/L,150,450,NORMAL,,WEEK 4,5,12/25/2025,28
STUDY001,LB,STUDY001-SUBJ0001,45,L00045,GLUC,Glucose,CHEMISTRY,84.96,mg/dL,70,100,84.96,84.96,mg/dL,70,100,NORMAL,,WEEK 4,5,12/25/2025,28
STUDY001,LB,STUDY001-SUBJ0001,46,L00046,BUN,Blood Urea Nitrogen,CHEMISTRY,15.24,mg/dL,7,20,15.24,15.24,mg/dL,7,20,NORMAL,,WEEK 4,5,12/25/2025,28
STUDY001,LB,STUDY001-SUBJ0001,47,L00047,CREAT,Creatinine,CHEMISTRY,0.76,mg/dL,0.6,1.2,0.76,0.76,mg/dL,0.6,1.2,NORMAL,,WEEK 4,5,12/25/2025,28
STUDY001,LB,STUDY001-SUBJ0001,48,L00048,BILI,Total Bilirubin,CHEMISTRY,0.68,mg/dL,0.1,1.2,0.68,0.68,mg/dL,0.1,1.2,NORMAL,,WEEK 4,5,12/25/2025,28
STUDY001,LB,STUDY001-SUBJ0001,49,L00049,ALP,Alkaline Phosphatase,CHEMISTRY,84.26,U/L,44,147,84.26,84.26,U/L,44,147,NORMAL,,WEEK 4,5,12/25/2025,28
STUDY001,LB,STUDY001-SUBJ0001,50,L00050,ALT,Alanine Aminotransferase,CHEMISTRY,25.63,U/L,7,56,25.63,25.63,U/L,7,56,NORMAL,,WEEK 4,5,12/25/2025,28
STUDY001,LB,STUDY001-SUBJ0001,51,L00051,HGB,Hemoglobin,HEMATOLOGY,12.44,g/dL,13.5,17.5,12.44,12.44,g/dL,13.5,17.5,LOW,,WEEK 8,6,1/22/2026,56
STUDY001,LB,STUDY001-SUBJ0001,52,L00052,HCT,Hematocrit,HEMATOLOGY,42.03,%,41,51,42.03,42.03,%,41,51,NORMAL,,WEEK 8,6,1/22/2026,56
STUDY001,LB,STUDY001-SUBJ0001,53,L00053,WBC,White Blood Cell Count,HEMATOLOGY,6.57,10^9/L,4.5,11,6.57,6.57,10^9/L,4.5,11,NORMAL,,WEEK 8,6,1/22/2026,56
STUDY001,LB,STUDY001-SUBJ0001,54,L00054,PLT,Platelet Count,HEMATOLOGY,297.33,10^9/L,150,450,297.33,297.33,10^9/L,150,450,NORMAL,,WEEK 8,6,1/22/2026,56
STUDY001,LB,STUDY001-SUBJ0001,55,L00055,GLUC,Glucose,CHEMISTRY,85.1,mg/dL,70,100,85.1,85.1,mg/dL,70,100,NORMAL,,WEEK 8,6,1/22/2026,56
STUDY001,LB,STUDY001-SUBJ0001,56,L00056,BUN,Blood Urea Nitrogen,CHEMISTRY,15.45,mg/dL,7,20,15.45,15.45,mg/dL,7,20,NORMAL,,WEEK 8,6,1/22/2026,56
STUDY001,LB,STUDY001-SUBJ0001,57,L00057,CREAT,Creatinine,CHEMISTRY,0.77,mg/dL,0.6,1.2,0.77,0.77,mg/dL,0.6,1.2,NORMAL,,WEEK 8,6,1/22/2026,56
STUDY001,LB,STUDY001-SUBJ0001,58,L00058,BILI,Total Bilirubin,CHEMISTRY,0.7,mg/dL,0.1,1.2,0.7,0.7,mg/dL,0.1,1.2,NORMAL,,WEEK 8,6,1/22/2026,56
STUDY001,LB,STUDY001-SUBJ0001,59,L00059,ALP,Alkaline Phosphatase,CHEMISTRY,84.05,U/L,44,147,84.05,84.05,U/L,44,147,NORMAL,,WEEK 8,6,1/22/2026,56
STUDY001,LB,STUDY001-SUBJ0001,60,L00060,ALT,Alanine Aminotransferase,CHEMISTRY,26.56,U/L,7,56,26.56,26.56,U/L,7,56,NORMAL,,WEEK 8,6,1/22/2026,56
STUDY001,LB,STUDY001-SUBJ0001,61,L00061,HGB,Hemoglobin,HEMATOLOGY,12.31,g/dL,13.5,17.5,12.31,12.31,g/dL,13.5,17.5,LOW,,WEEK 12,7,2/19/2026,84
STUDY001,LB,STUDY001-SUBJ0001,62,L00062,HCT,Hematocrit,HEMATOLOGY,40.98,%,41,51,40.98,40.98,%,41,51,LOW,,WEEK 12,7,2/19/2026,84
STUDY001,LB,STUDY001-SUBJ0001,63,L00063,WBC,White Blood Cell Count,HEMATOLOGY,6.77,10^9/L,4.5,11,6.77,6.77,10^9/L,4.5,11,NORMAL,,WEEK 12,7,2/19/2026,84
STUDY001,LB,STUDY001-SUBJ0001,64,L00064,PLT,Platelet Count,HEMATOLOGY,298.08,10^9/L,150,450,298.08,298.08,10^9/L,150,450,NORMAL,,WEEK 12,7,2/19/2026,84
STUDY001,LB,STUDY001-SUBJ0001,65,L00065,GLUC,Glucose,CHEMISTRY,84.93,mg/dL,70,100,84.93,84.93,mg/dL,70,100,NORMAL,,WEEK 12,7,2/19/2026,84
STUDY001,LB,STUDY001-SUBJ0001,66,L00066,BUN,Blood Urea Nitrogen,CHEMISTRY,14.91,mg/dL,7,20,14.91,14.91,mg/dL,7,20,NORMAL,,WEEK 12,7,2/19/2026,84
STUDY001,LB,STUDY001-SUBJ0001,67,L00067,CREAT,Creatinine,CHEMISTRY,0.76,mg/dL,0.6,1.2,0.76,0.76,mg/dL,0.6,1.2,NORMAL,,WEEK 12,7,2/19/2026,84
STUDY001,LB,STUDY001-SUBJ0001,68,L00068,BILI,Total Bilirubin,CHEMISTRY,0.68,mg/dL,0.1,1.2,0.68,0.68,mg/dL,0.1,1.2,NORMAL,,WEEK 12,7,2/19/2026,84
STUDY001,LB,STUDY001-SUBJ0001,69,L00069,ALP,Alkaline Phosphatase,CHEMISTRY,82.21,U/L,44,147,82.21,82.21,U/L,44,147,NORMAL,,WEEK 12,7,2/19/2026,84
STUDY001,LB,STUDY001-SUBJ0001,70,L00070,ALT,Alanine Aminotransferase,CHEMISTRY,26.77,U/L,7,56,26.77,26.77,U/L,7,56,NORMAL,,WEEK 12,7,2/19/2026,84
STUDY001,LB,STUDY001-SUBJ0001,71,L00071,HGB,Hemoglobin,HEMATOLOGY,12.42,g/dL,13.5,17.5,12.42,12.42,g/dL,13.5,17.5,LOW,,WEEK 16,8,3/19/2026,112
STUDY001,LB,STUDY001-SUBJ0001,72,L00072,HCT,Hematocrit,HEMATOLOGY,41.63,%,41,51,41.63,41.63,%,41,51,NORMAL,,WEEK 16,8,3/19/2026,112
STUDY001,LB,STUDY001-SUBJ0001,73,L00073,WBC,White Blood Cell Count,HEMATOLOGY,6.54,10^9/L,4.5,11,6.54,6.54,10^9/L,4.5,11,NORMAL,,WEEK 16,8,3/19/2026,112
STUDY001,LB,STUDY001-SUBJ0001,74,L00074,PLT,Platelet Count,HEMATOLOGY,302.13,10^9/L,150,450,302.13,302.13,10^9/L,150,450,NORMAL,,WEEK 16,8,3/19/2026,112
STUDY001,LB,STUDY001-SUBJ0001,75,L00075,GLUC,Glucose,CHEMISTRY,85.52,mg/dL,70,100,85.52,85.52,mg/dL,70,100,NORMAL,,WEEK 16,8,3/19/2026,112
STUDY001,LB,STUDY001-SUBJ0001,76,L00076,BUN,Blood Urea Nitrogen,CHEMISTRY,15.19,mg/dL,7,20,15.19,15.19,mg/dL,7,20,NORMAL,,WEEK 16,8,3/19/2026,112
STUDY001,LB,STUDY001-SUBJ0001,77,L00077,CREAT,Creatinine,CHEMISTRY,0.78,mg/dL,0.6,1.2,0.78,0.78,mg/dL,0.6,1.2,NORMAL,,WEEK 16,8,3/19/2026,112
STUDY001,LB,STUDY001-SUBJ0001,78,L00078,BILI,Total Bilirubin,CHEMISTRY,0.7,mg/dL,0.1,1.2,0.7,0.7,mg/dL,0.1,1.2,NORMAL,,WEEK 16,8,3/19/2026,112
STUDY001,LB,STUDY001-SUBJ0001,79,L00079,ALP,Alkaline Phosphatase,CHEMISTRY,84.87,U/L,44,147,84.87,84.87,U/L,44,147,NORMAL,,WEEK 16,8,3/19/2026,112
STUDY001,LB,STUDY001-SUBJ0001,80,L00080,ALT,Alanine Aminotransferase,CHEMISTRY,24.09,U/L,7,56,24.09,24.09,U/L,7,56,NORMAL,,WEEK 16,8,3/19/2026,112
STUDY001,LB,STUDY001-SUBJ0001,81,L00081,HGB,Hemoglobin,HEMATOLOGY,12.37,g/dL,13.5,17.5,12.37,12.37,g/dL,13.5,17.5,LOW,,END OF TREATMENT,9,4/16/2026,140
STUDY001,LB,STUDY001-SUBJ0001,82,L00082,HCT,Hematocrit,HEMATOLOGY,41.55,%,41,51,41.55,41.55,%,41,51,NORMAL,,END OF TREATMENT,9,4/16/2026,140
STUDY001,LB,STUDY001-SUBJ0001,83,L00083,WBC,White Blood Cell Count,HEMATOLOGY,6.68,10^9/L,4.5,11,6.68,6.68,10^9/L,4.5,11,NORMAL,,END OF TREATMENT,9,4/16/2026,140
STUDY001,LB,STUDY001-SUBJ0001,84,L00084,PLT,Platelet Count,HEMATOLOGY,309.34,10^9/L,150,450,309.34,309.34,10^9/L,150,450,NORMAL,,END OF TREATMENT,9,4/16/2026,140
STUDY001,LB,STUDY001-SUBJ0001,85,L00085,GLUC,Glucose,CHEMISTRY,85.69,mg/dL,70,100,85.69,85.69,mg/dL,70,100,NORMAL,,END OF TREATMENT,9,4/16/2026,140
STUDY001,LB,STUDY001-SUBJ0001,86,L00086,BUN,Blood Urea Nitrogen,CHEMISTRY,15.52,mg/dL,7,20,15.52,15.52,mg/dL,7,20,NORMAL,,END OF TREATMENT,9,4/16/2026,140
STUDY001,LB,STUDY001-SUBJ0001,87,L00087,CREAT,Creatinine,CHEMISTRY,0.8,mg/dL,0.6,1.2,0.8,0.8,mg/dL,0.6,1.2,NORMAL,,END OF TREATMENT,9,4/16/2026,140
STUDY001,LB,STUDY001-SUBJ0001,88,L00088,BILI,Total Bilirubin,CHEMISTRY,0.69,mg/dL,0.1,1.2,0.69,0.69,mg/dL,0.1,1.2,NORMAL,,END OF TREATMENT,9,4/16/2026,140
STUDY001,LB,STUDY001-SUBJ0001,89,L00089,ALP,Alkaline Phosphatase,CHEMISTRY,85.77,U/L,44,147,85.77,85.77,U/L,44,147,NORMAL,,END OF TREATMENT,9,4/16/2026,140
STUDY001,LB,STUDY001-SUBJ0001,90,L00090,ALT,Alanine Aminotransferase,CHEMISTRY,24.88,U/L,7,56,24.88,24.88,U/L,7,56,NORMAL,,END OF TREATMENT,9,4/16/2026,140
STUDY001,LB,STUDY001-SUBJ0002,1,L00001,HGB,Hemoglobin,HEMATOLOGY,15.09,g/dL,13.5,17.5,15.09,15.09,g/dL,13.5,17.5,NORMAL,,SCREENING,1,2/9/2025,-14
STUDY001,LB,STUDY001-SUBJ0002,2,L00002,HCT,Hematocrit,HEMATOLOGY,48.73,%,41,51,48.73,48.73,%,41,51,NORMAL,,SCREENING,1,2/9/2025,-14
STUDY001,LB,STUDY001-SUBJ0002,3,L00003,WBC,White Blood Cell Count,HEMATOLOGY,6.31,10^9/L,4.5,11,6.31,6.31,10^9/L,4.5,11,NORMAL,,SCREENING,1,2/9/2025,-14
STUDY001,LB,STUDY001-SUBJ0002,4,L00004,PLT,Platelet Count,HEMATOLOGY,351.77,10^9/L,150,450,351.77,351.77,10^9/L,150,450,NORMAL,,SCREENING,1,2/9/2025,-14
STUDY001,LB,STUDY001-SUBJ0002,5,L00005,GLUC,Glucose,CHEMISTRY,86.79,mg/dL,70,100,86.79,86.79,mg/dL,70,100,NORMAL,,SCREENING,1,2/9/2025,-14
STUDY001,LB,STUDY001-SUBJ0002,6,L00006,BUN,Blood Urea Nitrogen,CHEMISTRY,14.83,mg/dL,7,20,14.83,14.83,mg/dL,7,20,NORMAL,,SCREENING,1,2/9/2025,-14
STUDY001,LB,STUDY001-SUBJ0002,7,L00007,CREAT,Creatinine,CHEMISTRY,0.98,mg/dL,0.6,1.2,0.98,0.98,mg/dL,0.6,1.2,NORMAL,,SCREENING,1,2/9/2025,-14
STUDY001,LB,STUDY001-SUBJ0002,8,L00008,BILI,Total Bilirubin,CHEMISTRY,0.23,mg/dL,0.1,1.2,0.23,0.23,mg/dL,0.1,1.2,NORMAL,,SCREENING,1,2/9/2025,-14
STUDY001,LB,STUDY001-SUBJ0002,9,L00009,ALP,Alkaline Phosphatase,CHEMISTRY,80.78,U/L,44,147,80.78,80.78,U/L,44,147,NORMAL,,SCREENING,1,2/9/2025,-14
STUDY001,LB,STUDY001-SUBJ0002,10,L00010,ALT,Alanine Aminotransferase,CHEMISTRY,25.68,U/L,7,56,25.68,25.68,U/L,7,56,NORMAL,,SCREENING,1,2/9/2025,-14
STUDY001,LB,STUDY001-SUBJ0002,11,L00011,HGB,Hemoglobin,HEMATOLOGY,15.17,g/dL,13.5,17.5,15.17,15.17,g/dL,13.5,17.5,NORMAL,Y,BASELINE,2,2/23/2025,1
STUDY001,LB,STUDY001-SUBJ0002,12,L00012,HCT,Hematocrit,HEMATOLOGY,48.68,%,41,51,48.68,48.68,%,41,51,NORMAL,Y,BASELINE,2,2/23/2025,1
STUDY001,LB,STUDY001-SUBJ0002,13,L00013,WBC,White Blood Cell Count,HEMATOLOGY,6.05,10^9/L,4.5,11,6.05,6.05,10^9/L,4.5,11,NORMAL,Y,BASELINE,2,2/23/2025,1
STUDY001,LB,STUDY001-SUBJ0002,14,L00014,PLT,Platelet Count,HEMATOLOGY,348.98,10^9/L,150,450,348.98,348.98,10^9/L,150,450,NORMAL,Y,BASELINE,2,2/23/2025,1
STUDY001,LB,STUDY001-SUBJ0002,15,L00015,GLUC,Glucose,CHEMISTRY,86.48,mg/dL,70,100,86.48,86.48,mg/dL,70,100,NORMAL,Y,BASELINE,2,2/23/2025,1
STUDY001,LB,STUDY001-SUBJ0002,16,L00016,BUN,Blood Urea Nitrogen,CHEMISTRY,14.48,mg/dL,7,20,14.48,14.48,mg/dL,7,20,NORMAL,Y,BASELINE,2,2/23/2025,1
STUDY001,LB,STUDY001-SUBJ0002,17,L00017,CREAT,Creatinine,CHEMISTRY,0.99,mg/dL,0.6,1.2,0.99,0.99,mg/dL,0.6,1.2,NORMAL,Y,BASELINE,2,2/23/2025,1
STUDY001,LB,STUDY001-SUBJ0002,18,L00018,BILI,Total Bilirubin,CHEMISTRY,0.19,mg/dL,0.1,1.2,0.19,0.19,mg/dL,0.1,1.2,NORMAL,Y,BASELINE,2,2/23/2025,1
STUDY001,LB,STUDY001-SUBJ0002,19,L00019,ALP,Alkaline Phosphatase,CHEMISTRY,81.12,U/L,44,147,81.12,81.12,U/L,44,147,NORMAL,Y,BASELINE,2,2/23/2025,1
STUDY001,LB,STUDY001-SUBJ0002,20,L00020,ALT,Alanine Aminotransferase,CHEMISTRY,27.08,U/L,7,56,27.08,27.08,U/L,7,56,NORMAL,Y,BASELINE,2,2/23/2025,1
STUDY001,LB,STUDY001-SUBJ0002,21,L00021,HGB,Hemoglobin,HEMATOLOGY,15.1,g/dL,13.5,17.5,15.1,15.1,g/dL,13.5,17.5,NORMAL,,WEEK 1,3,3/1/2025,7
STUDY001,LB,STUDY001-SUBJ0002,22,L00022,HCT,Hematocrit,HEMATOLOGY,48.35,%,41,51,48.35,48.35,%,41,51,NORMAL,,WEEK 1,3,3/1/2025,7
STUDY001,LB,STUDY001-SUBJ0002,23,L00023,WBC,White Blood Cell Count,HEMATOLOGY,6.32,10^9/L,4.5,11,6.32,6.32,10^9/L,4.5,11,NORMAL,,WEEK 1,3,3/1/2025,7
STUDY001,LB,STUDY001-SUBJ0002,24,L00024,PLT,Platelet Count,HEMATOLOGY,350.3,10^9/L,150,450,350.3,350.3,10^9/L,150,450,NORMAL,,WEEK 1,3,3/1/2025,7
STUDY001,LB,STUDY001-SUBJ0002,25,L00025,GLUC,Glucose,CHEMISTRY,84.75,mg/dL,70,100,84.75,84.75,mg/dL,70,100,NORMAL,,WEEK 1,3,3/1/2025,7
STUDY001,LB,STUDY001-SUBJ0002,26,L00026,BUN,Blood Urea Nitrogen,CHEMISTRY,14.33,mg/dL,7,20,14.33,14.33,mg/dL,7,20,NORMAL,,WEEK 1,3,3/1/2025,7
STUDY001,LB,STUDY001-SUBJ0002,27,L00027,CREAT,Creatinine,CHEMISTRY,0.96,mg/dL,0.6,1.2,0.96,0.96,mg/dL,0.6,1.2,NORMAL,,WEEK 1,3,3/1/2025,7
STUDY001,LB,STUDY001-SUBJ0002,28,L00028,BILI,Total Bilirubin,CHEMISTRY,0.24,mg/dL,0.1,1.2,0.24,0.24,mg/dL,0.1,1.2,NORMAL,,WEEK 1,3,3/1/2025,7
STUDY001,LB,STUDY001-SUBJ0002,29,L00029,ALP,Alkaline Phosphatase,CHEMISTRY,78.47,U/L,44,147,78.47,78.47,U/L,44,147,NORMAL,,WEEK 1,3,3/1/2025,7
STUDY001,LB,STUDY001-SUBJ0002,30,L00030,ALT,Alanine Aminotransferase,CHEMISTRY,24.34,U/L,7,56,24.34,24.34,U/L,7,56,NORMAL,,WEEK 1,3,3/1/2025,7
STUDY001,LB,STUDY001-SUBJ0002,31,L00031,HGB,Hemoglobin,HEMATOLOGY,14.98,g/dL,13.5,17.5,14.98,14.98,g/dL,13.5,17.5,NORMAL,,WEEK 2,4,3/8/2025,14
STUDY001,LB,STUDY001-SUBJ0002,32,L00032,HCT,Hematocrit,HEMATOLOGY,48.43,%,41,51,48.43,48.43,%,41,51,NORMAL,,WEEK 2,4,3/8/2025,14
STUDY001,LB,STUDY001-SUBJ0002,33,L00033,WBC,White Blood Cell Count,HEMATOLOGY,6.08,10^9/L,4.5,11,6.08,6.08,10^9/L,4.5,11,NORMAL,,WEEK 2,4,3/8/2025,14
STUDY001,LB,STUDY001-SUBJ0002,34,L00034,PLT,Platelet Count,HEMATOLOGY,350.63,10^9/L,150,450,350.63,350.63,10^9/L,150,450,NORMAL,,WEEK 2,4,3/8/2025,14
STUDY001,LB,STUDY001-SUBJ0002,35,L00035,GLUC,Glucose,CHEMISTRY,88.1,mg/dL,70,100,88.1,88.1,mg/dL,70,100,NORMAL,,WEEK 2,4,3/8/2025,14
STUDY001,LB,STUDY001-SUBJ0002,36,L00036,BUN,Blood Urea Nitrogen,CHEMISTRY,14.74,mg/dL,7,20,14.74,14.74,mg/dL,7,20,NORMAL,,WEEK 2,4,3/8/2025,14
STUDY001,LB,STUDY001-SUBJ0002,37,L00037,CREAT,Creatinine,CHEMISTRY,0.97,mg/dL,0.6,1.2,0.97,0.97,mg/dL,0.6,1.2,NORMAL,,WEEK 2,4,3/8/2025,14
STUDY001,LB,STUDY001-SUBJ0002,38,L00038,BILI,Total Bilirubin,CHEMISTRY,0.21,mg/dL,0.1,1.2,0.21,0.21,mg/dL,0.1,1.2,NORMAL,,WEEK 2,4,3/8/2025,14
STUDY001,LB,STUDY001-SUBJ0002,39,L00039,ALP,Alkaline Phosphatase,CHEMISTRY,82.14,U/L,44,147,82.14,82.14,U/L,44,147,NORMAL,,WEEK 2,4,3/8/2025,14
STUDY001,LB,STUDY001-SUBJ0002,40,L00040,ALT,Alanine Aminotransferase,CHEMISTRY,26.07,U/L,7,56,26.07,26.07,U/L,7,56,NORMAL,,WEEK 2,4,3/8/2025,14
STUDY001,LB,STUDY001-SUBJ0002,41,L00041,HGB,Hemoglobin,HEMATOLOGY,15.12,g/dL,13.5,17.5,15.12,15.12,g/dL,13.5,17.5,NORMAL,,WEEK 4,5,3/22/2025,28
STUDY001,LB,STUDY001-SUBJ0002,42,L00042,HCT,Hematocrit,HEMATOLOGY,48.85,%,41,51,48.85,48.85,%,41,51,NORMAL,,WEEK 4,5,3/22/2025,28
STUDY001,LB,STUDY001-SUBJ0002,43,L00043,WBC,White Blood Cell Count,HEMATOLOGY,6.43,10^9/L,4.5,11,6.43,6.43,10^9/L,4.5,11,NORMAL,,WEEK 4,5,3/22/2025,28
STUDY001,LB,STUDY001-SUBJ0002,44,L00044,PLT,Platelet Count,HEMATOLOGY,370.02,10^9/L,150,450,370.02,370.02,10^9/L,150,450,NORMAL,,WEEK 4,5,3/22/2025,28
STUDY001,LB,STUDY001-SUBJ0002,45,L00045,GLUC,Glucose,CHEMISTRY,86.88,mg/dL,70,100,86.88,86.88,mg/dL,70,100,NORMAL,,WEEK 4,5,3/22/2025,28
STUDY001,LB,STUDY001-SUBJ0002,46,L00046,BUN,Blood Urea Nitrogen,CHEMISTRY,14.54,mg/dL,7,20,14.54,14.54,mg/dL,7,20,NORMAL,,WEEK 4,5,3/22/2025,28
STUDY001,LB,STUDY001-SUBJ0002,47,L00047,CREAT,Creatinine,CHEMISTRY,0.98,mg/dL,0.6,1.2,0.98,0.98,mg/dL,0.6,1.2,NORMAL,,WEEK 4,5,3/22/2025,28
STUDY001,LB,STUDY001-SUBJ0002,48,L00048,BILI,Total Bilirubin,CHEMISTRY,0.22,mg/dL,0.1,1.2,0.22,0.22,mg/dL,0.1,1.2,NORMAL,,WEEK 4,5,3/22/2025,28
STUDY001,LB,STUDY001-SUBJ0002,49,L00049,ALP,Alkaline Phosphatase,CHEMISTRY,81.11,U/L,44,147,81.11,81.11,U/L,44,147,NORMAL,,WEEK 4,5,3/22/2025,28
STUDY001,LB,STUDY001-SUBJ0002,50,L00050,ALT,Alanine Aminotransferase,CHEMISTRY,26.24,U/L,7,56,26.24,26.24,U/L,7,56,NORMAL,,WEEK 4,5,3/22/2025,28
STUDY001,LB,STUDY001-SUBJ0002,51,L00051,HGB,Hemoglobin,HEMATOLOGY,14.92,g/dL,13.5,17.5,14.92,14.92,g/dL,13.5,17.5,NORMAL,,WEEK 8,6,4/19/2025,56
STUDY001,LB,STUDY001-SUBJ0002,52,L00052,HCT,Hematocrit,HEMATOLOGY,48.77,%,41,51,48.77,48.77,%,41,51,NORMAL,,WEEK 8,6,4/19/2025,56
STUDY001,LB,STUDY001-SUBJ0002,53,L00053,WBC,White Blood Cell Count,HEMATOLOGY,6.44,10^9/L,4.5,11,6.44,6.44,10^9/L,4.5,11,NORMAL,,WEEK 8,6,4/19/2025,56
STUDY001,LB,STUDY001-SUBJ0002,54,L00054,PLT,Platelet Count,HEMATOLOGY,353.88,10^9/L,150,450,353.88,353.88,10^9/L,150,450,NORMAL,,WEEK 8,6,4/19/2025,56
STUDY001,LB,STUDY001-SUBJ0002,55,L00055,GLUC,Glucose,CHEMISTRY,88.91,mg/dL,70,100,88.91,88.91,mg/dL,70,100,NORMAL,,WEEK 8,6,4/19/2025,56
STUDY001,LB,STUDY001-SUBJ0002,56,L00056,BUN,Blood Urea Nitrogen,CHEMISTRY,14.84,mg/dL,7,20,14.84,14.84,mg/dL,7,20,NORMAL,,WEEK 8,6,4/19/2025,56
STUDY001,LB,STUDY001-SUBJ0002,57,L00057,CREAT,Creatinine,CHEMISTRY,0.99,mg/dL,0.6,1.2,0.99,0.99,mg/dL,0.6,1.2,NORMAL,,WEEK 8,6,4/19/2025,56
STUDY001,LB,STUDY001-SUBJ0002,58,L00058,BILI,Total Bilirubin,CHEMISTRY,0.18,mg/dL,0.1,1.2,0.18,0.18,mg/dL,0.1,1.2,NORMAL,,WEEK 8,6,4/19/2025,56
STUDY001,LB,STUDY001-SUBJ0002,59,L00059,ALP,Alkaline Phosphatase,CHEMISTRY,79.36,U/L,44,147,79.36,79.36,U/L,44,147,NORMAL,,WEEK 8,6,4/19/2025,56
STUDY001,LB,STUDY001-SUBJ0002,60,L00060,ALT,Alanine Aminotransferase,CHEMISTRY,26.65,U/L,7,56,26.65,26.65,U/L,7,56,NORMAL,,WEEK 8,6,4/19/2025,56
STUDY001,LB,STUDY001-SUBJ0002,61,L00061,HGB,Hemoglobin,HEMATOLOGY,15.03,g/dL,13.5,17.5,15.03,15.03,g/dL,13.5,17.5,NORMAL,,WEEK 12,7,5/17/2025,84
STUDY001,LB,STUDY001-SUBJ0002,62,L00062,HCT,Hematocrit,HEMATOLOGY,48.92,%,41,51,48.92,48.92,%,41,51,NORMAL,,WEEK 12,7,5/17/2025,84
STUDY001,LB,STUDY001-SUBJ0002,63,L00063,WBC,White Blood Cell Count,HEMATOLOGY,6.51,10^9/L,4.5,11,6.51,6.51,10^9/L,4.5,11,NORMAL,,WEEK 12,7,5/17/2025,84
STUDY001,LB,STUDY001-SUBJ0002,64,L00064,PLT,Platelet Count,HEMATOLOGY,355.92,10^9/L,150,450,355.92,355.92,10^9/L,150,450,NORMAL,,WEEK 12,7,5/17/2025,84
STUDY001,LB,STUDY001-SUBJ0002,65,L00065,GLUC,Glucose,CHEMISTRY,87.01,mg/dL,70,100,87.01,87.01,mg/dL,70,100,NORMAL,,WEEK 12,7,5/17/2025,84
STUDY001,LB,STUDY001-SUBJ0002,66,L00066,BUN,Blood Urea Nitrogen,CHEMISTRY,15.27,mg/dL,7,20,15.27,15.27,mg/dL,7,20,NORMAL,,WEEK 12,7,5/17/2025,84
STUDY001,LB,STUDY001-SUBJ0002,67,L00067,CREAT,Creatinine,CHEMISTRY,0.96,mg/dL,0.6,1.2,0.96,0.96,mg/dL,0.6,1.2,NORMAL,,WEEK 12,7,5/17/2025,84
STUDY001,LB,STUDY001-SUBJ0002,68,L00068,BILI,Total Bilirubin,CHEMISTRY,0.25,mg/dL,0.1,1.2,0.25,0.25,mg/dL,0.1,1.2,NORMAL,,WEEK 12,7,5/17/2025,84
STUDY001,LB,STUDY001-SUBJ0002,69,L00069,ALP,Alkaline Phosphatase,CHEMISTRY,78.86,U/L,44,147,78.86,78.86,U/L,44,147,NORMAL,,WEEK 12,7,5/17/2025,84
STUDY001,LB,STUDY001-SUBJ0002,70,L00070,ALT,Alanine Aminotransferase,CHEMISTRY,27.22,U/L,7,56,27.22,27.22,U/L,7,56,NORMAL,,WEEK 12,7,5/17/2025,84
STUDY001,LB,STUDY001-SUBJ0002,71,L00071,HGB,Hemoglobin,HEMATOLOGY,14.93,g/dL,13.5,17.5,14.93,14.93,g/dL,13.5,17.5,NORMAL,,WEEK 16,8,6/14/2025,112
STUDY001,LB,STUDY001-SUBJ0002,72,L00072,HCT,Hematocrit,HEMATOLOGY,48.92,%,41,51,48.92,48.92,%,41,51,NORMAL,,WEEK 16,8,6/14/2025,112
STUDY001,LB,STUDY001-SUBJ0002,73,L00073,WBC,White Blood Cell Count,HEMATOLOGY,6.36,10^9/L,4.5,11,6.36,6.36,10^9/L,4.5,11,NORMAL,,WEEK 16,8,6/14/2025,112
STUDY001,LB,STUDY001-SUBJ0002,74,L00074,PLT,Platelet Count,HEMATOLOGY,355.49,10^9/L,150,450,355.49,355.49,10^9/L,150,450,NORMAL,,WEEK 16,8,6/14/2025,112
STUDY001,LB,STUDY001-SUBJ0002,75,L00075,GLUC,Glucose,CHEMISTRY,87.49,mg/dL,70,100,87.49,87.49,mg/dL,70,100,NORMAL,,WEEK 16,8,6/14/2025,112
STUDY001,LB,STUDY001-SUBJ0002,76,L00076,BUN,Blood Urea Nitrogen,CHEMISTRY,14.77,mg/dL,7,20,14.77,14.77,mg/dL,7,20,NORMAL,,WEEK 16,8,6/14/2025,112
STUDY001,LB,STUDY001-SUBJ0002,77,L00077,CREAT,Creatinine,CHEMISTRY,0.98,mg/dL,0.6,1.2,0.98,0.98,mg/dL,0.6,1.2,NORMAL,,WEEK 16,8,6/14/2025,112
STUDY001,LB,STUDY001-SUBJ0002,78,L00078,BILI,Total Bilirubin,CHEMISTRY,0.22,mg/dL,0.1,1.2,0.22,0.22,mg/dL,0.1,1.2,NORMAL,,WEEK 16,8,6/14/2025,112
STUDY001,LB,STUDY001-SUBJ0002,79,L00079,ALP,Alkaline Phosphatase,CHEMISTRY,83.47,U/L,44,147,83.47,83.47,U/L,44,147,NORMAL,,WEEK 16,8,6/14/2025,112
STUDY001,LB,STUDY001-SUBJ0002,80,L00080,ALT,Alanine Aminotransferase,CHEMISTRY,25.96,U/L,7,56,25.96,25.96,U/L,7,56,NORMAL,,WEEK 16,8,6/14/2025,112
STUDY001,LB,STUDY001-SUBJ0002,81,L00081,HGB,Hemoglobin,HEMATOLOGY,15,g/dL,13.5,17.5,15,15,g/dL,13.5,17.5,NORMAL,,END OF TREATMENT,9,7/12/2025,140
STUDY001,LB,STUDY001-SUBJ0002,82,L00082,HCT,Hematocrit,HEMATOLOGY,48.29,%,41,51,48.29,48.29,%,41,51,NORMAL,,END OF TREATMENT,9,7/12/2025,140
STUDY001,LB,STUDY001-SUBJ0002,83,L00083,WBC,White Blood Cell Count,HEMATOLOGY,6.07,10^9/L,4.5,11,6.07,6.07,10^9/L,4.5,11,NORMAL,,END OF TREATMENT,9,7/12/2025,140
STUDY001,LB,STUDY001-SUBJ0002,84,L00084,PLT,Platelet Count,HEMATOLOGY,353.19,10^9/L,150,450,353.19,353.19,10^9/L,150,450,NORMAL,,END OF TREATMENT,9,7/12/2025,140
STUDY001,LB,STUDY001-SUBJ0002,85,L00085,GLUC,Glucose,CHEMISTRY,87.94,mg/dL,70,100,87.94,87.94,mg/dL,70,100,NORMAL,,END OF TREATMENT,9,7/12/2025,140
STUDY001,LB,STUDY001-SUBJ0002,86,L00086,BUN,Blood Urea Nitrogen,CHEMISTRY,14.56,mg/dL,7,20,14.56,14.56,mg/dL,7,20,NORMAL,,END OF TREATMENT,9,7/12/2025,140
STUDY001,LB,STUDY001-SUBJ0002,87,L00087,CREAT,Creatinine,CHEMISTRY,0.97,mg/dL,0.6,1.2,0.97,0.97,mg/dL,0.6,1.2,NORMAL,,END OF TREATMENT,9,7/12/2025,140
STUDY001,LB,STUDY001-SUBJ0002,88,L00088,BILI,Total Bilirubin,CHEMISTRY,0.23,mg/dL,0.1,1.2,0.23,0.23,mg/dL,0.1,1.2,NORMAL,,END OF TREATMENT,9,7/12/2025,140
STUDY001,LB,STUDY001-SUBJ0002,89,L00089,ALP,Alkaline Phosphatase,CHEMISTRY,74.36,U/L,44,147,74.36,74.36,U/L,44,147,NORMAL,,END OF TREATMENT,9,7/12/2025,140
STUDY001,LB,STUDY001-SUBJ0002,90,L00090,ALT,Alanine Aminotransferase,CHEMISTRY,25.71,U/L,7,56,25.71,25.71,U/L,7,56,NORMAL,,END OF TREATMENT,9,7/12/2025,140
STUDY001,LB,STUDY001-SUBJ0003,1,L00001,HGB,Hemoglobin,HEMATOLOGY,14.46,g/dL,13.5,17.5,14.46,14.46,g/dL,13.5,17.5,NORMAL,,SCREENING,1,2/3/2025,-14
STUDY001,LB,STUDY001-SUBJ0003,2,L00002,HCT,Hematocrit,HEMATOLOGY,45.46,%,41,51,45.46,45.46,%,41,51,NORMAL,,SCREENING,1,2/3/2025,-14
STUDY001,LB,STUDY001-SUBJ0003,3,L00003,WBC,White Blood Cell Count,HEMATOLOGY,4.75,10^9/L,4.5,11,4.75,4.75,10^9/L,4.5,11,NORMAL,,SCREENING,1,2/3/2025,-14
STUDY001,LB,STUDY001-SUBJ0003,4,L00004,PLT,Platelet Count,HEMATOLOGY,249.71,10^9/L,150,450,249.71,249.71,10^9/L,150,450,NORMAL,,SCREENING,1,2/3/2025,-14
STUDY001,LB,STUDY001-SUBJ0003,5,L00005,GLUC,Glucose,CHEMISTRY,89.87,mg/dL,70,100,89.87,89.87,mg/dL,70,100,NORMAL,,SCREENING,1,2/3/2025,-14
STUDY001,LB,STUDY001-SUBJ0003,6,L00006,BUN,Blood Urea Nitrogen,CHEMISTRY,9.42,mg/dL,7,20,9.42,9.42,mg/dL,7,20,NORMAL,,SCREENING,1,2/3/2025,-14
STUDY001,LB,STUDY001-SUBJ0003,7,L00007,CREAT,Creatinine,CHEMISTRY,1,mg/dL,0.6,1.2,1,1,mg/dL,0.6,1.2,NORMAL,,SCREENING,1,2/3/2025,-14
STUDY001,LB,STUDY001-SUBJ0003,8,L00008,BILI,Total Bilirubin,CHEMISTRY,0.69,mg/dL,0.1,1.2,0.69,0.69,mg/dL,0.1,1.2,NORMAL,,SCREENING,1,2/3/2025,-14
STUDY001,LB,STUDY001-SUBJ0003,9,L00009,ALP,Alkaline Phosphatase,CHEMISTRY,103.65,U/L,44,147,103.65,103.65,U/L,44,147,NORMAL,,SCREENING,1,2/3/2025,-14
STUDY001,LB,STUDY001-SUBJ0003,10,L00010,ALT,Alanine Aminotransferase,CHEMISTRY,25.47,U/L,7,56,25.47,25.47,U/L,7,56,NORMAL,,SCREENING,1,2/3/2025,-14
STUDY001,LB,STUDY001-SUBJ0003,11,L00011,HGB,Hemoglobin,HEMATOLOGY,14.55,g/dL,13.5,17.5,14.55,14.55,g/dL,13.5,17.5,NORMAL,Y,BASELINE,2,2/17/2025,1
STUDY001,LB,STUDY001-SUBJ0003,12,L00012,HCT,Hematocrit,HEMATOLOGY,45.23,%,41,51,45.23,45.23,%,41,51,NORMAL,Y,BASELINE,2,2/17/2025,1
STUDY001,LB,STUDY001-SUBJ0003,13,L00013,WBC,White Blood Cell Count,HEMATOLOGY,4.89,10^9/L,4.5,11,4.89,4.89,10^9/L,4.5,11,NORMAL,Y,BASELINE,2,2/17/2025,1
STUDY001,LB,STUDY001-SUBJ0003,14,L00014,PLT,Platelet Count,HEMATOLOGY,253.4,10^9/L,150,450,253.4,253.4,10^9/L,150,450,NORMAL,Y,BASELINE,2,2/17/2025,1
STUDY001,LB,STUDY001-SUBJ0003,15,L00015,GLUC,Glucose,CHEMISTRY,87.77,mg/dL,70,100,87.77,87.77,mg/dL,70,100,NORMAL,Y,BASELINE,2,2/17/2025,1
STUDY001,LB,STUDY001-SUBJ0003,16,L00016,BUN,Blood Urea Nitrogen,CHEMISTRY,9.3,mg/dL,7,20,9.3,9.3,mg/dL,7,20,NORMAL,Y,BASELINE,2,2/17/2025,1
STUDY001,LB,STUDY001-SUBJ0003,17,L00017,CREAT,Creatinine,CHEMISTRY,1.04,mg/dL,0.6,1.2,1.04,1.04,mg/dL,0.6,1.2,NORMAL,Y,BASELINE,2,2/17/2025,1
STUDY001,LB,STUDY001-SUBJ0003,18,L00018,BILI,Total Bilirubin,CHEMISTRY,0.69,mg/dL,0.1,1.2,0.69,0.69,mg/dL,0.1,1.2,NORMAL,Y,BASELINE,2,2/17/2025,1
STUDY001,LB,STUDY001-SUBJ0003,19,L00019,ALP,Alkaline Phosphatase,CHEMISTRY,95.9,U/L,44,147,95.9,95.9,U/L,44,147,NORMAL,Y,BASELINE,2,2/17/2025,1
STUDY001,LB,STUDY001-SUBJ0003,20,L00020,ALT,Alanine Aminotransferase,CHEMISTRY,25.48,U/L,7,56,25.48,25.48,U/L,7,56,NORMAL,Y,BASELINE,2,2/17/2025,1
STUDY001,LB,STUDY001-SUBJ0003,21,L00021,HGB,Hemoglobin,HEMATOLOGY,14.43,g/dL,13.5,17.5,14.43,14.43,g/dL,13.5,17.5,NORMAL,,WEEK 1,3,2/23/2025,7
STUDY001,LB,STUDY001-SUBJ0003,22,L00022,HCT,Hematocrit,HEMATOLOGY,45.2,%,41,51,45.2,45.2,%,41,51,NORMAL,,WEEK 1,3,2/23/2025,7
STUDY001,LB,STUDY001-SUBJ0003,23,L00023,WBC,White Blood Cell Count,HEMATOLOGY,4.75,10^9/L,4.5,11,4.75,4.75,10^9/L,4.5,11,NORMAL,,WEEK 1,3,2/23/2025,7
STUDY001,LB,STUDY001-SUBJ0003,24,L00024,PLT,Platelet Count,HEMATOLOGY,250.87,10^9/L,150,450,250.87,250.87,10^9/L,150,450,NORMAL,,WEEK 1,3,2/23/2025,7
STUDY001,LB,STUDY001-SUBJ0003,25,L00025,GLUC,Glucose,CHEMISTRY,88.92,mg/dL,70,100,88.92,88.92,mg/dL,70,100,NORMAL,,WEEK 1,3,2/23/2025,7
STUDY001,LB,STUDY001-SUBJ0003,26,L00026,BUN,Blood Urea Nitrogen,CHEMISTRY,9.87,mg/dL,7,20,9.87,9.87,mg/dL,7,20,NORMAL,,WEEK 1,3,2/23/2025,7
STUDY001,LB,STUDY001-SUBJ0003,27,L00027,CREAT,Creatinine,CHEMISTRY,1.02,mg/dL,0.6,1.2,1.02,1.02,mg/dL,0.6,1.2,NORMAL,,WEEK 1,3,2/23/2025,7
STUDY001,LB,STUDY001-SUBJ0003,28,L00028,BILI,Total Bilirubin,CHEMISTRY,0.66,mg/dL,0.1,1.2,0.66,0.66,mg/dL,0.1,1.2,NORMAL,,WEEK 1,3,2/23/2025,7
STUDY001,LB,STUDY001-SUBJ0003,29,L00029,ALP,Alkaline Phosphatase,CHEMISTRY,101.21,U/L,44,147,101.21,101.21,U/L,44,147,NORMAL,,WEEK 1,3,2/23/2025,7
STUDY001,LB,STUDY001-SUBJ0003,30,L00030,ALT,Alanine Aminotransferase,CHEMISTRY,24.57,U/L,7,56,24.57,24.57,U/L,7,56,NORMAL,,WEEK 1,3,2/23/2025,7
STUDY001,LB,STUDY001-SUBJ0003,31,L00031,HGB,Hemoglobin,HEMATOLOGY,14.52,g/dL,13.5,17.5,14.52,14.52,g/dL,13.5,17.5,NORMAL,,WEEK 2,4,3/2/2025,14
STUDY001,LB,STUDY001-SUBJ0003,32,L00032,HCT,Hematocrit,HEMATOLOGY,45.27,%,41,51,45.27,45.27,%,41,51,NORMAL,,WEEK 2,4,3/2/2025,14
STUDY001,LB,STUDY001-SUBJ0003,33,L00033,WBC,White Blood Cell Count,HEMATOLOGY,4.86,10^9/L,4.5,11,4.86,4.86,10^9/L,4.5,11,NORMAL,,WEEK 2,4,3/2/2025,14
STUDY001,LB,STUDY001-SUBJ0003,34,L00034,PLT,Platelet Count,HEMATOLOGY,253.51,10^9/L,150,450,253.51,253.51,10^9/L,150,450,NORMAL,,WEEK 2,4,3/2/2025,14
STUDY001,LB,STUDY001-SUBJ0003,35,L00035,GLUC,Glucose,CHEMISTRY,88.13,mg/dL,70,100,88.13,88.13,mg/dL,70,100,NORMAL,,WEEK 2,4,3/2/2025,14
STUDY001,LB,STUDY001-SUBJ0003,36,L00036,BUN,Blood Urea Nitrogen,CHEMISTRY,9.37,mg/dL,7,20,9.37,9.37,mg/dL,7,20,NORMAL,,WEEK 2,4,3/2/2025,14
STUDY001,LB,STUDY001-SUBJ0003,37,L00037,CREAT,Creatinine,CHEMISTRY,1.02,mg/dL,0.6,1.2,1.02,1.02,mg/dL,0.6,1.2,NORMAL,,WEEK 2,4,3/2/2025,14
STUDY001,LB,STUDY001-SUBJ0003,38,L00038,BILI,Total Bilirubin,CHEMISTRY,0.64,mg/dL,0.1,1.2,0.64,0.64,mg/dL,0.1,1.2,NORMAL,,WEEK 2,4,3/2/2025,14
STUDY001,LB,STUDY001-SUBJ0003,39,L00039,ALP,Alkaline Phosphatase,CHEMISTRY,97.11,U/L,44,147,97.11,97.11,U/L,44,147,NORMAL,,WEEK 2,4,3/2/2025,14
STUDY001,LB,STUDY001-SUBJ0003,40,L00040,ALT,Alanine Aminotransferase,CHEMISTRY,24.13,U/L,7,56,24.13,24.13,U/L,7,56,NORMAL,,WEEK 2,4,3/2/2025,14
STUDY001,LB,STUDY001-SUBJ0003,41,L00041,HGB,Hemoglobin,HEMATOLOGY,14.55,g/dL,13.5,17.5,14.55,14.55,g/dL,13.5,17.5,NORMAL,,WEEK 4,5,3/16/2025,28
STUDY001,LB,STUDY001-SUBJ0003,42,L00042,HCT,Hematocrit,HEMATOLOGY,45.51,%,41,51,45.51,45.51,%,41,51,NORMAL,,WEEK 4,5,3/16/2025,28
STUDY001,LB,STUDY001-SUBJ0003,43,L00043,WBC,White Blood Cell Count,HEMATOLOGY,4.51,10^9/L,4.5,11,4.51,4.51,10^9/L,4.5,11,NORMAL,,WEEK 4,5,3/16/2025,28
STUDY001,LB,STUDY001-SUBJ0003,44,L00044,PLT,Platelet Count,HEMATOLOGY,255.03,10^9/L,150,450,255.03,255.03,10^9/L,150,450,NORMAL,,WEEK 4,5,3/16/2025,28
STUDY001,LB,STUDY001-SUBJ0003,45,L00045,GLUC,Glucose,CHEMISTRY,87.98,mg/dL,70,100,87.98,87.98,mg/dL,70,100,NORMAL,,WEEK 4,5,3/16/2025,28
STUDY001,LB,STUDY001-SUBJ0003,46,L00046,BUN,Blood Urea Nitrogen,CHEMISTRY,9.43,mg/dL,7,20,9.43,9.43,mg/dL,7,20,NORMAL,,WEEK 4,5,3/16/2025,28
STUDY001,LB,STUDY001-SUBJ0003,47,L00047,CREAT,Creatinine,CHEMISTRY,1.04,mg/dL,0.6,1.2,1.04,1.04,mg/dL,0.6,1.2,NORMAL,,WEEK 4,5,3/16/2025,28
STUDY001,LB,STUDY001-SUBJ0003,48,L00048,BILI,Total Bilirubin,CHEMISTRY,0.65,mg/dL,0.1,1.2,0.65,0.65,mg/dL,0.1,1.2,NORMAL,,WEEK 4,5,3/16/2025,28
STUDY001,LB,STUDY001-SUBJ0003,49,L00049,ALP,Alkaline Phosphatase,CHEMISTRY,97.16,U/L,44,147,97.16,97.16,U/L,44,147,NORMAL,,WEEK 4,5,3/16/2025,28
STUDY001,LB,STUDY001-SUBJ0003,50,L00050,ALT,Alanine Aminotransferase,CHEMISTRY,23.43,U/L,7,56,23.43,23.43,U/L,7,56,NORMAL,,WEEK 4,5,3/16/2025,28
STUDY001,LB,STUDY001-SUBJ0003,51,L00051,HGB,Hemoglobin,HEMATOLOGY,14.58,g/dL,13.5,17.5,14.58,14.58,g/dL,13.5,17.5,NORMAL,,WEEK 8,6,4/13/2025,56
STUDY001,LB,STUDY001-SUBJ0003,52,L00052,HCT,Hematocrit,HEMATOLOGY,45.38,%,41,51,45.38,45.38,%,41,51,NORMAL,,WEEK 8,6,4/13/2025,56
STUDY001,LB,STUDY001-SUBJ0003,53,L00053,WBC,White Blood Cell Count,HEMATOLOGY,4.88,10^9/L,4.5,11,4.88,4.88,10^9/L,4.5,11,NORMAL,,WEEK 8,6,4/13/2025,56
STUDY001,LB,STUDY001-SUBJ0003,54,L00054,PLT,Platelet Count,HEMATOLOGY,239.97,10^9/L,150,450,239.97,239.97,10^9/L,150,450,NORMAL,,WEEK 8,6,4/13/2025,56
STUDY001,LB,STUDY001-SUBJ0003,55,L00055,GLUC,Glucose,CHEMISTRY,87.45,mg/dL,70,100,87.45,87.45,mg/dL,70,100,NORMAL,,WEEK 8,6,4/13/2025,56
STUDY001,LB,STUDY001-SUBJ0003,56,L00056,BUN,Blood Urea Nitrogen,CHEMISTRY,9.81,mg/dL,7,20,9.81,9.81,mg/dL,7,20,NORMAL,,WEEK 8,6,4/13/2025,56
STUDY001,LB,STUDY001-SUBJ0003,57,L00057,CREAT,Creatinine,CHEMISTRY,0.99,mg/dL,0.6,1.2,0.99,0.99,mg/dL,0.6,1.2,NORMAL,,WEEK 8,6,4/13/2025,56
STUDY001,LB,STUDY001-SUBJ0003,58,L00058,BILI,Total Bilirubin,CHEMISTRY,0.69,mg/dL,0.1,1.2,0.69,0.69,mg/dL,0.1,1.2,NORMAL,,WEEK 8,6,4/13/2025,56
STUDY001,LB,STUDY001-SUBJ0003,59,L00059,ALP,Alkaline Phosphatase,CHEMISTRY,95.54,U/L,44,147,95.54,95.54,U/L,44,147,NORMAL,,WEEK 8,6,4/13/2025,56
STUDY001,LB,STUDY001-SUBJ0003,60,L00060,ALT,Alanine Aminotransferase,CHEMISTRY,25.53,U/L,7,56,25.53,25.53,U/L,7,56,NORMAL,,WEEK 8,6,4/13/2025,56
STUDY001,LB,STUDY001-SUBJ0003,61,L00061,HGB,Hemoglobin,HEMATOLOGY,14.55,g/dL,13.5,17.5,14.55,14.55,g/dL,13.5,17.5,NORMAL,,WEEK 12,7,5/11/2025,84
STUDY001,LB,STUDY001-SUBJ0003,62,L00062,HCT,Hematocrit,HEMATOLOGY,45.38,%,41,51,45.38,45.38,%,41,51,NORMAL,,WEEK 12,7,5/11/2025,84
STUDY001,LB,STUDY001-SUBJ0003,63,L00063,WBC,White Blood Cell Count,HEMATOLOGY,4.54,10^9/L,4.5,11,4.54,4.54,10^9/L,4.5,11,NORMAL,,WEEK 12,7,5/11/2025,84
STUDY001,LB,STUDY001-SUBJ0003,64,L00064,PLT,Platelet Count,HEMATOLOGY,247.04,10^9/L,150,450,247.04,247.04,10^9/L,150,450,NORMAL,,WEEK 12,7,5/11/2025,84
STUDY001,LB,STUDY001-SUBJ0003,65,L00065,GLUC,Glucose,CHEMISTRY,87.08,mg/dL,70,100,87.08,87.08,mg/dL,70,100,NORMAL,,WEEK 12,7,5/11/2025,84
STUDY001,LB,STUDY001-SUBJ0003,66,L00066,BUN,Blood Urea Nitrogen,CHEMISTRY,9.28,mg/dL,7,20,9.28,9.28,mg/dL,7,20,NORMAL,,WEEK 12,7,5/11/2025,84
STUDY001,LB,STUDY001-SUBJ0003,67,L00067,CREAT,Creatinine,CHEMISTRY,0.98,mg/dL,0.6,1.2,0.98,0.98,mg/dL,0.6,1.2,NORMAL,,WEEK 12,7,5/11/2025,84
STUDY001,LB,STUDY001-SUBJ0003,68,L00068,BILI,Total Bilirubin,CHEMISTRY,0.67,mg/dL,0.1,1.2,0.67,0.67,mg/dL,0.1,1.2,NORMAL,,WEEK 12,7,5/11/2025,84
STUDY001,LB,STUDY001-SUBJ0003,69,L00069,ALP,Alkaline Phosphatase,CHEMISTRY,97.06,U/L,44,147,97.06,97.06,U/L,44,147,NORMAL,,WEEK 12,7,5/11/2025,84
STUDY001,LB,STUDY001-SUBJ0003,70,L00070,ALT,Alanine Aminotransferase,CHEMISTRY,26.19,U/L,7,56,26.19,26.19,U/L,7,56,NORMAL,,WEEK 12,7,5/11/2025,84
STUDY001,LB,STUDY001-SUBJ0003,71,L00071,HGB,Hemoglobin,HEMATOLOGY,14.61,g/dL,13.5,17.5,14.61,14.61,g/dL,13.5,17.5,NORMAL,,WEEK 16,8,6/8/2025,112
STUDY001,LB,STUDY001-SUBJ0003,72,L00072,HCT,Hematocrit,HEMATOLOGY,45.24,%,41,51,45.24,45.24,%,41,51,NORMAL,,WEEK 16,8,6/8/2025,112
STUDY001,LB,STUDY001-SUBJ0003,73,L00073,WBC,White Blood Cell Count,HEMATOLOGY,4.72,10^9/L,4.5,11,4.72,4.72,10^9/L,4.5,11,NORMAL,,WEEK 16,8,6/8/2025,112
STUDY001,LB,STUDY001-SUBJ0003,74,L00074,PLT,Platelet Count,HEMATOLOGY,260.74,10^9/L,150,450,260.74,260.74,10^9/L,150,450,NORMAL,,WEEK 16,8,6/8/2025,112
STUDY001,LB,STUDY001-SUBJ0003,75,L00075,GLUC,Glucose,CHEMISTRY,89.44,mg/dL,70,100,89.44,89.44,mg/dL,70,100,NORMAL,,WEEK 16,8,6/8/2025,112
STUDY001,LB,STUDY001-SUBJ0003,76,L00076,BUN,Blood Urea Nitrogen,CHEMISTRY,9.64,mg/dL,7,20,9.64,9.64,mg/dL,7,20,NORMAL,,WEEK 16,8,6/8/2025,112
STUDY001,LB,STUDY001-SUBJ0003,77,L00077,CREAT,Creatinine,CHEMISTRY,1.02,mg/dL,0.6,1.2,1.02,1.02,mg/dL,0.6,1.2,NORMAL,,WEEK 16,8,6/8/2025,112
STUDY001,LB,STUDY001-SUBJ0003,78,L00078,BILI,Total Bilirubin,CHEMISTRY,0.68,mg/dL,0.1,1.2,0.68,0.68,mg/dL,0.1,1.2,NORMAL,,WEEK 16,8,6/8/2025,112
STUDY001,LB,STUDY001-SUBJ0003,79,L00079,ALP,Alkaline Phosphatase,CHEMISTRY,98.18,U/L,44,147,98.18,98.18,U/L,44,147,NORMAL,,WEEK 16,8,6/8/2025,112
STUDY001,LB,STUDY001-SUBJ0003,80,L00080,ALT,Alanine Aminotransferase,CHEMISTRY,26.99,U/L,7,56,26.99,26.99,U/L,7,56,NORMAL,,WEEK 16,8,6/8/2025,112
STUDY001,LB,STUDY001-SUBJ0003,81,L00081,HGB,Hemoglobin,HEMATOLOGY,14.51,g/dL,13.5,17.5,14.51,14.51,g/dL,13.5,17.5,NORMAL,,END OF TREATMENT,9,7/6/2025,140
STUDY001,LB,STUDY001-SUBJ0003,82,L00082,HCT,Hematocrit,HEMATOLOGY,44.98,%,41,51,44.98,44.98,%,41,51,NORMAL,,END OF TREATMENT,9,7/6/2025,140
STUDY001,LB,STUDY001-SUBJ0003,83,L00083,WBC,White Blood Cell Count,HEMATOLOGY,4.72,10^9/L,4.5,11,4.72,4.72,10^9/L,4.5,11,NORMAL,,END OF TREATMENT,9,7/6/2025,140
STUDY001,LB,STUDY001-SUBJ0003,84,L00084,PLT,Platelet Count,HEMATOLOGY,253.13,10^9/L,150,450,253.13,253.13,10^9/L,150,450,NORMAL,,END OF TREATMENT,9,7/6/2025,140
STUDY001,LB,STUDY001-SUBJ0003,85,L00085,GLUC,Glucose,CHEMISTRY,88.86,mg/dL,70,100,88.86,88.86,mg/dL,70,100,NORMAL,,END OF TREATMENT,9,7/6/2025,140
STUDY001,LB,STUDY001-SUBJ0003,86,L00086,BUN,Blood Urea Nitrogen,CHEMISTRY,9.27,mg/dL,7,20,9.27,9.27,mg/dL,7,20,NORMAL,,END OF TREATMENT,9,7/6/2025,140
STUDY001,LB,STUDY001-SUBJ0003,87,L00087,CREAT,Creatinine,CHEMISTRY,1.01,mg/dL,0.6,1.2,1.01,1.01,mg/dL,0.6,1.2,NORMAL,,END OF TREATMENT,9,7/6/2025,140
STUDY001,LB,STUDY001-SUBJ0003,88,L00088,BILI,Total Bilirubin,CHEMISTRY,0.69,mg/dL,0.1,1.2,0.69,0.69,mg/dL,0.1,1.2,NORMAL,,END OF TREATMENT,9,7/6/2025,140
STUDY001,LB,STUDY001-SUBJ0003,89,L00089,ALP,Alkaline Phosphatase,CHEMISTRY,98.16,U/L,44,147,98.16,98.16,U/L,44,147,NORMAL,,END OF TREATMENT,9,7/6/2025,140
STUDY001,LB,STUDY001-SUBJ0003,90,L00090,ALT,Alanine Aminotransferase,CHEMISTRY,25.06,U/L,7,56,25.06,25.06,U/L,7,56,NORMAL,,END OF TREATMENT,9,7/6/2025,140
STUDY001,LB,STUDY001-SUBJ0004,1,L00001,HGB,Hemoglobin,HEMATOLOGY,15.84,g/dL,13.5,17.5,15.84,15.84,g/dL,13.5,17.5,NORMAL,,SCREENING,1,10/31/2025,-14
STUDY001,LB,STUDY001-SUBJ0004,2,L00002,HCT,Hematocrit,HEMATOLOGY,43.67,%,41,51,43.67,43.67,%,41,51,NORMAL,,SCREENING,1,10/31/2025,-14
STUDY001,LB,STUDY001-SUBJ0004,3,L00003,WBC,White Blood Cell Count,HEMATOLOGY,4.58,10^9/L,4.5,11,4.58,4.58,10^9/L,4.5,11,NORMAL,,SCREENING,1,10/31/2025,-14
STUDY001,LB,STUDY001-SUBJ0004,4,L00004,PLT,Platelet Count,HEMATOLOGY,189.77,10^9/L,150,450,189.77,189.77,10^9/L,150,450,NORMAL,,SCREENING,1,10/31/2025,-14
STUDY001,LB,STUDY001-SUBJ0004,5,L00005,GLUC,Glucose,CHEMISTRY,93.76,mg/dL,70,100,93.76,93.76,mg/dL,70,100,NORMAL,,SCREENING,1,10/31/2025,-14
STUDY001,LB,STUDY001-SUBJ0004,6,L00006,BUN,Blood Urea Nitrogen,CHEMISTRY,15.06,mg/dL,7,20,15.06,15.06,mg/dL,7,20,NORMAL,,SCREENING,1,10/31/2025,-14
STUDY001,LB,STUDY001-SUBJ0004,7,L00007,CREAT,Creatinine,CHEMISTRY,0.88,mg/dL,0.6,1.2,0.88,0.88,mg/dL,0.6,1.2,NORMAL,,SCREENING,1,10/31/2025,-14
STUDY001,LB,STUDY001-SUBJ0004,8,L00008,BILI,Total Bilirubin,CHEMISTRY,0.79,mg/dL,0.1,1.2,0.79,0.79,mg/dL,0.1,1.2,NORMAL,,SCREENING,1,10/31/2025,-14
STUDY001,LB,STUDY001-SUBJ0004,9,L00009,ALP,Alkaline Phosphatase,CHEMISTRY,106.85,U/L,44,147,106.85,106.85,U/L,44,147,NORMAL,,SCREENING,1,10/31/2025,-14
STUDY001,LB,STUDY001-SUBJ0004,10,L00010,ALT,Alanine Aminotransferase,CHEMISTRY,19.64,U/L,7,56,19.64,19.64,U/L,7,56,NORMAL,,SCREENING,1,10/31/2025,-14
STUDY001,LB,STUDY001-SUBJ0004,11,L00011,HGB,Hemoglobin,HEMATOLOGY,15.67,g/dL,13.5,17.5,15.67,15.67,g/dL,13.5,17.5,NORMAL,Y,BASELINE,2,11/14/2025,1
STUDY001,LB,STUDY001-SUBJ0004,12,L00012,HCT,Hematocrit,HEMATOLOGY,43.54,%,41,51,43.54,43.54,%,41,51,NORMAL,Y,BASELINE,2,11/14/2025,1
STUDY001,LB,STUDY001-SUBJ0004,13,L00013,WBC,White Blood Cell Count,HEMATOLOGY,4.7,10^9/L,4.5,11,4.7,4.7,10^9/L,4.5,11,NORMAL,Y,BASELINE,2,11/14/2025,1
STUDY001,LB,STUDY001-SUBJ0004,14,L00014,PLT,Platelet Count,HEMATOLOGY,202.32,10^9/L,150,450,202.32,202.32,10^9/L,150,450,NORMAL,Y,BASELINE,2,11/14/2025,1
STUDY001,LB,STUDY001-SUBJ0004,15,L00015,GLUC,Glucose,CHEMISTRY,91.33,mg/dL,70,100,91.33,91.33,mg/dL,70,100,NORMAL,Y,BASELINE,2,11/14/2025,1
STUDY001,LB,STUDY001-SUBJ0004,16,L00016,BUN,Blood Urea Nitrogen,CHEMISTRY,15.1,mg/dL,7,20,15.1,15.1,mg/dL,7,20,NORMAL,Y,BASELINE,2,11/14/2025,1
STUDY001,LB,STUDY001-SUBJ0004,17,L00017,CREAT,Creatinine,CHEMISTRY,0.87,mg/dL,0.6,1.2,0.87,0.87,mg/dL,0.6,1.2,NORMAL,Y,BASELINE,2,11/14/2025,1
STUDY001,LB,STUDY001-SUBJ0004,18,L00018,BILI,Total Bilirubin,CHEMISTRY,0.74,mg/dL,0.1,1.2,0.74,0.74,mg/dL,0.1,1.2,NORMAL,Y,BASELINE,2,11/14/2025,1
STUDY001,LB,STUDY001-SUBJ0004,19,L00019,ALP,Alkaline Phosphatase,CHEMISTRY,111.83,U/L,44,147,111.83,111.83,U/L,44,147,NORMAL,Y,BASELINE,2,11/14/2025,1
STUDY001,LB,STUDY001-SUBJ0004,20,L00020,ALT,Alanine Aminotransferase,CHEMISTRY,21.69,U/L,7,56,21.69,21.69,U/L,7,56,NORMAL,Y,BASELINE,2,11/14/2025,1
STUDY001,LB,STUDY001-SUBJ0004,21,L00021,HGB,Hemoglobin,HEMATOLOGY,15.74,g/dL,13.5,17.5,15.74,15.74,g/dL,13.5,17.5,NORMAL,,WEEK 1,3,11/20/2025,7
STUDY001,LB,STUDY001-SUBJ0004,22,L00022,HCT,Hematocrit,HEMATOLOGY,43.39,%,41,51,43.39,43.39,%,41,51,NORMAL,,WEEK 1,3,11/20/2025,7
STUDY001,LB,STUDY001-SUBJ0004,23,L00023,WBC,White Blood Cell Count,HEMATOLOGY,4.62,10^9/L,4.5,11,4.62,4.62,10^9/L,4.5,11,NORMAL,,WEEK 1,3,11/20/2025,7
STUDY001,LB,STUDY001-SUBJ0004,24,L00024,PLT,Platelet Count,HEMATOLOGY,193.81,10^9/L,150,450,193.81,193.81,10^9/L,150,450,NORMAL,,WEEK 1,3,11/20/2025,7
STUDY001,LB,STUDY001-SUBJ0004,25,L00025,GLUC,Glucose,CHEMISTRY,91.5,mg/dL,70,100,91.5,91.5,mg/dL,70,100,NORMAL,,WEEK 1,3,11/20/2025,7
STUDY001,LB,STUDY001-SUBJ0004,26,L00026,BUN,Blood Urea Nitrogen,CHEMISTRY,15.21,mg/dL,7,20,15.21,15.21,mg/dL,7,20,NORMAL,,WEEK 1,3,11/20/2025,7
STUDY001,LB,STUDY001-SUBJ0004,27,L00027,CREAT,Creatinine,CHEMISTRY,0.8,mg/dL,0.6,1.2,0.8,0.8,mg/dL,0.6,1.2,NORMAL,,WEEK 1,3,11/20/2025,7
STUDY001,LB,STUDY001-SUBJ0004,28,L00028,BILI,Total Bilirubin,CHEMISTRY,0.75,mg/dL,0.1,1.2,0.75,0.75,mg/dL,0.1,1.2,NORMAL,,WEEK 1,3,11/20/2025,7
STUDY001,LB,STUDY001-SUBJ0004,29,L00029,ALP,Alkaline Phosphatase,CHEMISTRY,111.6,U/L,44,147,111.6,111.6,U/L,44,147,NORMAL,,WEEK 1,3,11/20/2025,7
STUDY001,LB,STUDY001-SUBJ0004,30,L00030,ALT,Alanine Aminotransferase,CHEMISTRY,22.03,U/L,7,56,22.03,22.03,U/L,7,56,NORMAL,,WEEK 1,3,11/20/2025,7
STUDY001,LB,STUDY001-SUBJ0004,31,L00031,HGB,Hemoglobin,HEMATOLOGY,15.79,g/dL,13.5,17.5,15.79,15.79,g/dL,13.5,17.5,NORMAL,,WEEK 2,4,11/27/2025,14
STUDY001,LB,STUDY001-SUBJ0004,32,L00032,HCT,Hematocrit,HEMATOLOGY,43.34,%,41,51,43.34,43.34,%,41,51,NORMAL,,WEEK 2,4,11/27/2025,14
STUDY001,LB,STUDY001-SUBJ0004,33,L00033,WBC,White Blood Cell Count,HEMATOLOGY,4.54,10^9/L,4.5,11,4.54,4.54,10^9/L,4.5,11,NORMAL,,WEEK 2,4,11/27/2025,14
STUDY001,LB,STUDY001-SUBJ0004,34,L00034,PLT,Platelet Count,HEMATOLOGY,195.45,10^9/L,150,450,195.45,195.45,10^9/L,150,450,NORMAL,,WEEK 2,4,11/27/2025,14
STUDY001,LB,STUDY001-SUBJ0004,35,L00035,GLUC,Glucose,CHEMISTRY,92.32,mg/dL,70,100,92.32,92.32,mg/dL,70,100,NORMAL,,WEEK 2,4,11/27/2025,14
STUDY001,LB,STUDY001-SUBJ0004,36,L00036,BUN,Blood Urea Nitrogen,CHEMISTRY,14.87,mg/dL,7,20,14.87,14.87,mg/dL,7,20,NORMAL,,WEEK 2,4,11/27/2025,14
STUDY001,LB,STUDY001-SUBJ0004,37,L00037,CREAT,Creatinine,CHEMISTRY,0.84,mg/dL,0.6,1.2,0.84,0.84,mg/dL,0.6,1.2,NORMAL,,WEEK 2,4,11/27/2025,14
STUDY001,LB,STUDY001-SUBJ0004,38,L00038,BILI,Total Bilirubin,CHEMISTRY,0.74,mg/dL,0.1,1.2,0.74,0.74,mg/dL,0.1,1.2,NORMAL,,WEEK 2,4,11/27/2025,14
STUDY001,LB,STUDY001-SUBJ0004,39,L00039,ALP,Alkaline Phosphatase,CHEMISTRY,113.33,U/L,44,147,113.33,113.33,U/L,44,147,NORMAL,,WEEK 2,4,11/27/2025,14
STUDY001,LB,STUDY001-SUBJ0004,40,L00040,ALT,Alanine Aminotransferase,CHEMISTRY,22.07,U/L,7,56,22.07,22.07,U/L,7,56,NORMAL,,WEEK 2,4,11/27/2025,14
STUDY001,LB,STUDY001-SUBJ0004,41,L00041,HGB,Hemoglobin,HEMATOLOGY,15.71,g/dL,13.5,17.5,15.71,15.71,g/dL,13.5,17.5,NORMAL,,WEEK 4,5,12/11/2025,28
STUDY001,LB,STUDY001-SUBJ0004,42,L00042,HCT,Hematocrit,HEMATOLOGY,43.6,%,41,51,43.6,43.6,%,41,51,NORMAL,,WEEK 4,5,12/11/2025,28
STUDY001,LB,STUDY001-SUBJ0004,43,L00043,WBC,White Blood Cell Count,HEMATOLOGY,4.55,10^9/L,4.5,11,4.55,4.55,10^9/L,4.5,11,NORMAL,,WEEK 4,5,12/11/2025,28
STUDY001,LB,STUDY001-SUBJ0004,44,L00044,PLT,Platelet Count,HEMATOLOGY,190.3,10^9/L,150,450,190.3,190.3,10^9/L,150,450,NORMAL,,WEEK 4,5,12/11/2025,28
STUDY001,LB,STUDY001-SUBJ0004,45,L00045,GLUC,Glucose,CHEMISTRY,90.37,mg/dL,70,100,90.37,90.37,mg/dL,70,100,NORMAL,,WEEK 4,5,12/11/2025,28
STUDY001,LB,STUDY001-SUBJ0004,46,L00046,BUN,Blood Urea Nitrogen,CHEMISTRY,15.41,mg/dL,7,20,15.41,15.41,mg/dL,7,20,NORMAL,,WEEK 4,5,12/11/2025,28
STUDY001,LB,STUDY001-SUBJ0004,47,L00047,CREAT,Creatinine,CHEMISTRY,0.85,mg/dL,0.6,1.2,0.85,0.85,mg/dL,0.6,1.2,NORMAL,,WEEK 4,5,12/11/2025,28
STUDY001,LB,STUDY001-SUBJ0004,48,L00048,BILI,Total Bilirubin,CHEMISTRY,0.74,mg/dL,0.1,1.2,0.74,0.74,mg/dL,0.1,1.2,NORMAL,,WEEK 4,5,12/11/2025,28
STUDY001,LB,STUDY001-SUBJ0004,49,L00049,ALP,Alkaline Phosphatase,CHEMISTRY,108.62,U/L,44,147,108.62,108.62,U/L,44,147,NORMAL,,WEEK 4,5,12/11/2025,28
STUDY001,LB,STUDY001-SUBJ0004,50,L00050,ALT,Alanine Aminotransferase,CHEMISTRY,21.48,U/L,7,56,21.48,21.48,U/L,7,56,NORMAL,,WEEK 4,5,12/11/2025,28
STUDY001,LB,STUDY001-SUBJ0004,51,L00051,HGB,Hemoglobin,HEMATOLOGY,15.86,g/dL,13.5,17.5,15.86,15.86,g/dL,13.5,17.5,NORMAL,,WEEK 8,6,1/8/2026,56
STUDY001,LB,STUDY001-SUBJ0004,52,L00052,HCT,Hematocrit,HEMATOLOGY,44.02,%,41,51,44.02,44.02,%,41,51,NORMAL,,WEEK 8,6,1/8/2026,56
STUDY001,LB,STUDY001-SUBJ0004,53,L00053,WBC,White Blood Cell Count,HEMATOLOGY,4.65,10^9/L,4.5,11,4.65,4.65,10^9/L,4.5,11,NORMAL,,WEEK 8,6,1/8/2026,56
STUDY001,LB,STUDY001-SUBJ0004,54,L00054,PLT,Platelet Count,HEMATOLOGY,188.27,10^9/L,150,450,188.27,188.27,10^9/L,150,450,NORMAL,,WEEK 8,6,1/8/2026,56
STUDY001,LB,STUDY001-SUBJ0004,55,L00055,GLUC,Glucose,CHEMISTRY,91.82,mg/dL,70,100,91.82,91.82,mg/dL,70,100,NORMAL,,WEEK 8,6,1/8/2026,56
STUDY001,LB,STUDY001-SUBJ0004,56,L00056,BUN,Blood Urea Nitrogen,CHEMISTRY,14.77,mg/dL,7,20,14.77,14.77,mg/dL,7,20,NORMAL,,WEEK 8,6,1/8/2026,56
STUDY001,LB,STUDY001-SUBJ0004,57,L00057,CREAT,Creatinine,CHEMISTRY,0.83,mg/dL,0.6,1.2,0.83,0.83,mg/dL,0.6,1.2,NORMAL,,WEEK 8,6,1/8/2026,56
STUDY001,LB,STUDY001-SUBJ0004,58,L00058,BILI,Total Bilirubin,CHEMISTRY,0.79,mg/dL,0.1,1.2,0.79,0.79,mg/dL,0.1,1.2,NORMAL,,WEEK 8,6,1/8/2026,56
STUDY001,LB,STUDY001-SUBJ0004,59,L00059,ALP,Alkaline Phosphatase,CHEMISTRY,111.42,U/L,44,147,111.42,111.42,U/L,44,147,NORMAL,,WEEK 8,6,1/8/2026,56
STUDY001,LB,STUDY001-SUBJ0004,60,L00060,ALT,Alanine Aminotransferase,CHEMISTRY,21.89,U/L,7,56,21.89,21.89,U/L,7,56,NORMAL,,WEEK 8,6,1/8/2026,56
STUDY001,LB,STUDY001-SUBJ0004,61,L00061,HGB,Hemoglobin,HEMATOLOGY,15.83,g/dL,13.5,17.5,15.83,15.83,g/dL,13.5,17.5,NORMAL,,WEEK 12,7,2/5/2026,84
STUDY001,LB,STUDY001-SUBJ0004,62,L00062,HCT,Hematocrit,HEMATOLOGY,43.77,%,41,51,43.77,43.77,%,41,51,NORMAL,,WEEK 12,7,2/5/2026,84
STUDY001,LB,STUDY001-SUBJ0004,63,L00063,WBC,White Blood Cell Count,HEMATOLOGY,4.54,10^9/L,4.5,11,4.54,4.54,10^9/L,4.5,11,NORMAL,,WEEK 12,7,2/5/2026,84
STUDY001,LB,STUDY001-SUBJ0004,64,L00064,PLT,Platelet Count,HEMATOLOGY,191.44,10^9/L,150,450,191.44,191.44,10^9/L,150,450,NORMAL,,WEEK 12,7,2/5/2026,84
STUDY001,LB,STUDY001-SUBJ0004,65,L00065,GLUC,Glucose,CHEMISTRY,91.52,mg/dL,70,100,91.52,91.52,mg/dL,70,100,NORMAL,,WEEK 12,7,2/5/2026,84
STUDY001,LB,STUDY001-SUBJ0004,66,L00066,BUN,Blood Urea Nitrogen,CHEMISTRY,15.21,mg/dL,7,20,15.21,15.21,mg/dL,7,20,NORMAL,,WEEK 12,7,2/5/2026,84
STUDY001,LB,STUDY001-SUBJ0004,67,L00067,CREAT,Creatinine,CHEMISTRY,0.84,mg/dL,0.6,1.2,0.84,0.84,mg/dL,0.6,1.2,NORMAL,,WEEK 12,7,2/5/2026,84
STUDY001,LB,STUDY001-SUBJ0004,68,L00068,BILI,Total Bilirubin,CHEMISTRY,0.76,mg/dL,0.1,1.2,0.76,0.76,mg/dL,0.1,1.2,NORMAL,,WEEK 12,7,2/5/2026,84
STUDY001,LB,STUDY001-SUBJ0004,69,L00069,ALP,Alkaline Phosphatase,CHEMISTRY,110.88,U/L,44,147,110.88,110.88,U/L,44,147,NORMAL,,WEEK 12,7,2/5/2026,84
STUDY001,LB,STUDY001-SUBJ0004,70,L00070,ALT,Alanine Aminotransferase,CHEMISTRY,21.34,U/L,7,56,21.34,21.34,U/L,7,56,NORMAL,,WEEK 12,7,2/5/2026,84
STUDY001,LB,STUDY001-SUBJ0004,71,L00071,HGB,Hemoglobin,HEMATOLOGY,15.92,g/dL,13.5,17.5,15.92,15.92,g/dL,13.5,17.5,NORMAL,,WEEK 16,8,3/5/2026,112
STUDY001,LB,STUDY001-SUBJ0004,72,L00072,HCT,Hematocrit,HEMATOLOGY,43.7,%,41,51,43.7,43.7,%,41,51,NORMAL,,WEEK 16,8,3/5/2026,112
STUDY001,LB,STUDY001-SUBJ0004,73,L00073,WBC,White Blood Cell Count,HEMATOLOGY,4.63,10^9/L,4.5,11,4.63,4.63,10^9/L,4.5,11,NORMAL,,WEEK 16,8,3/5/2026,112
STUDY001,LB,STUDY001-SUBJ0004,74,L00074,PLT,Platelet Count,HEMATOLOGY,192.69,10^9/L,150,450,192.69,192.69,10^9/L,150,450,NORMAL,,WEEK 16,8,3/5/2026,112
STUDY001,LB,STUDY001-SUBJ0004,75,L00075,GLUC,Glucose,CHEMISTRY,92.03,mg/dL,70,100,92.03,92.03,mg/dL,70,100,NORMAL,,WEEK 16,8,3/5/2026,112
STUDY001,LB,STUDY001-SUBJ0004,76,L00076,BUN,Blood Urea Nitrogen,CHEMISTRY,14.71,mg/dL,7,20,14.71,14.71,mg/dL,7,20,NORMAL,,WEEK 16,8,3/5/2026,112
STUDY001,LB,STUDY001-SUBJ0004,77,L00077,CREAT,Creatinine,CHEMISTRY,0.86,mg/dL,0.6,1.2,0.86,0.86,mg/dL,0.6,1.2,NORMAL,,WEEK 16,8,3/5/2026,112
STUDY001,LB,STUDY001-SUBJ0004,78,L00078,BILI,Total Bilirubin,CHEMISTRY,0.79,mg/dL,0.1,1.2,0.79,0.79,mg/dL,0.1,1.2,NORMAL,,WEEK 16,8,3/5/2026,112
STUDY001,LB,STUDY001-SUBJ0004,79,L00079,ALP,Alkaline Phosphatase,CHEMISTRY,107.98,U/L,44,147,107.98,107.98,U/L,44,147,NORMAL,,WEEK 16,8,3/5/2026,112
STUDY001,LB,STUDY001-SUBJ0004,80,L00080,ALT,Alanine Aminotransferase,CHEMISTRY,20.38,U/L,7,56,20.38,20.38,U/L,7,56,NORMAL,,WEEK 16,8,3/5/2026,112
STUDY001,LB,STUDY001-SUBJ0004,81,L00081,HGB,Hemoglobin,HEMATOLOGY,15.76,g/dL,13.5,17.5,15.76,15.76,g/dL,13.5,17.5,NORMAL,,END OF TREATMENT,9,4/2/2026,140
STUDY001,LB,STUDY001-SUBJ0004,82,L00082,HCT,Hematocrit,HEMATOLOGY,43.26,%,41,51,43.26,43.26,%,41,51,NORMAL,,END OF TREATMENT,9,4/2/2026,140
STUDY001,LB,STUDY001-SUBJ0004,83,L00083,WBC,White Blood Cell Count,HEMATOLOGY,4.67,10^9/L,4.5,11,4.67,4.67,10^9/L,4.5,11,NORMAL,,END OF TREATMENT,9,4/2/2026,140
STUDY001,LB,STUDY001-SUBJ0004,84,L00084,PLT,Platelet Count,HEMATOLOGY,197.02,10^9/L,150,450,197.02,197.02,10^9/L,150,450,NORMAL,,END OF TREATMENT,9,4/2/2026,140
STUDY001,LB,STUDY001-SUBJ0004,85,L00085,GLUC,Glucose,CHEMISTRY,91.82,mg/dL,70,100,91.82,91.82,mg/dL,70,100,NORMAL,,END OF TREATMENT,9,4/2/2026,140
STUDY001,LB,STUDY001-SUBJ0004,86,L00086,BUN,Blood Urea Nitrogen,CHEMISTRY,15.35,mg/dL,7,20,15.35,15.35,mg/dL,7,20,NORMAL,,END OF TREATMENT,9,4/2/2026,140
STUDY001,LB,STUDY001-SUBJ0004,87,L00087,CREAT,Creatinine,CHEMISTRY,0.86,mg/dL,0.6,1.2,0.86,0.86,mg/dL,0.6,1.2,NORMAL,,END OF TREATMENT,9,4/2/2026,140
STUDY001,LB,STUDY001-SUBJ0004,88,L00088,BILI,Total Bilirubin,CHEMISTRY,0.77,mg/dL,0.1,1.2,0.77,0.77,mg/dL,0.1,1.2,NORMAL,,END OF TREATMENT,9,4/2/2026,140
STUDY001,LB,STUDY001-SUBJ0004,89,L00089,ALP,Alkaline Phosphatase,CHEMISTRY,110.35,U/L,44,147,110.35,110.35,U/L,44,147,NORMAL,,END OF TREATMENT,9,4/2/2026,140
STUDY001,LB,STUDY001-SUBJ0004,90,L00090,ALT,Alanine Aminotransferase,CHEMISTRY,20.75,U/L,7,56,20.75,20.75,U/L,7,56,NORMAL,,END OF TREATMENT,9,4/2/2026,140
STUDY001,LB,STUDY001-SUBJ0005,1,L00001,HGB,Hemoglobin,HEMATOLOGY,15.71,g/dL,13.5,17.5,15.71,15.71,g/dL,13.5,17.5,NORMAL,,SCREENING,1,7/14/2025,-14
STUDY001,LB,STUDY001-SUBJ0005,2,L00002,HCT,Hematocrit,HEMATOLOGY,45.39,%,41,51,45.39,45.39,%,41,51,NORMAL,,SCREENING,1,7/14/2025,-14
STUDY001,LB,STUDY001-SUBJ0005,3,L00003,WBC,White Blood Cell Count,HEMATOLOGY,4.38,10^9/L,4.5,11,4.38,4.38,10^9/L,4.5,11,LOW,,SCREENING,1,7/14/2025,-14
STUDY001,LB,STUDY001-SUBJ0005,4,L00004,PLT,Platelet Count,HEMATOLOGY,262.02,10^9/L,150,450,262.02,262.02,10^9/L,150,450,NORMAL,,SCREENING,1,7/14/2025,-14
STUDY001,LB,STUDY001-SUBJ0005,5,L00005,GLUC,Glucose,CHEMISTRY,89.28,mg/dL,70,100,89.28,89.28,mg/dL,70,100,NORMAL,,SCREENING,1,7/14/2025,-14
STUDY001,LB,STUDY001-SUBJ0005,6,L00006,BUN,Blood Urea Nitrogen,CHEMISTRY,18.19,mg/dL,7,20,18.19,18.19,mg/dL,7,20,NORMAL,,SCREENING,1,7/14/2025,-14
STUDY001,LB,STUDY001-SUBJ0005,7,L00007,CREAT,Creatinine,CHEMISTRY,0.9,mg/dL,0.6,1.2,0.9,0.9,mg/dL,0.6,1.2,NORMAL,,SCREENING,1,7/14/2025,-14
STUDY001,LB,STUDY001-SUBJ0005,8,L00008,BILI,Total Bilirubin,CHEMISTRY,0.76,mg/dL,0.1,1.2,0.76,0.76,mg/dL,0.1,1.2,NORMAL,,SCREENING,1,7/14/2025,-14
STUDY001,LB,STUDY001-SUBJ0005,9,L00009,ALP,Alkaline Phosphatase,CHEMISTRY,124.81,U/L,44,147,124.81,124.81,U/L,44,147,NORMAL,,SCREENING,1,7/14/2025,-14
STUDY001,LB,STUDY001-SUBJ0005,10,L00010,ALT,Alanine Aminotransferase,CHEMISTRY,35.11,U/L,7,56,35.11,35.11,U/L,7,56,NORMAL,,SCREENING,1,7/14/2025,-14
STUDY001,LB,STUDY001-SUBJ0005,11,L00011,HGB,Hemoglobin,HEMATOLOGY,15.54,g/dL,13.5,17.5,15.54,15.54,g/dL,13.5,17.5,NORMAL,Y,BASELINE,2,7/28/2025,1
STUDY001,LB,STUDY001-SUBJ0005,12,L00012,HCT,Hematocrit,HEMATOLOGY,45.55,%,41,51,45.55,45.55,%,41,51,NORMAL,Y,BASELINE,2,7/28/2025,1
STUDY001,LB,STUDY001-SUBJ0005,13,L00013,WBC,White Blood Cell Count,HEMATOLOGY,4.51,10^9/L,4.5,11,4.51,4.51,10^9/L,4.5,11,NORMAL,Y,BASELINE,2,7/28/2025,1
STUDY001,LB,STUDY001-SUBJ0005,14,L00014,PLT,Platelet Count,HEMATOLOGY,268.47,10^9/L,150,450,268.47,268.47,10^9/L,150,450,NORMAL,Y,BASELINE,2,7/28/2025,1
STUDY001,LB,STUDY001-SUBJ0005,15,L00015,GLUC,Glucose,CHEMISTRY,89.09,mg/dL,70,100,89.09,89.09,mg/dL,70,100,NORMAL,Y,BASELINE,2,7/28/2025,1
STUDY001,LB,STUDY001-SUBJ0005,16,L00016,BUN,Blood Urea Nitrogen,CHEMISTRY,18.28,mg/dL,7,20,18.28,18.28,mg/dL,7,20,NORMAL,Y,BASELINE,2,7/28/2025,1
STUDY001,LB,STUDY001-SUBJ0005,17,L00017,CREAT,Creatinine,CHEMISTRY,0.86,mg/dL,0.6,1.2,0.86,0.86,mg/dL,0.6,1.2,NORMAL,Y,BASELINE,2,7/28/2025,1
STUDY001,LB,STUDY001-SUBJ0005,18,L00018,BILI,Total Bilirubin,CHEMISTRY,0.75,mg/dL,0.1,1.2,0.75,0.75,mg/dL,0.1,1.2,NORMAL,Y,BASELINE,2,7/28/2025,1
STUDY001,LB,STUDY001-SUBJ0005,19,L00019,ALP,Alkaline Phosphatase,CHEMISTRY,130.02,U/L,44,147,130.02,130.02,U/L,44,147,NORMAL,Y,BASELINE,2,7/28/2025,1
STUDY001,LB,STUDY001-SUBJ0005,20,L00020,ALT,Alanine Aminotransferase,CHEMISTRY,34.06,U/L,7,56,34.06,34.06,U/L,7,56,NORMAL,Y,BASELINE,2,7/28/2025,1
STUDY001,LB,STUDY001-SUBJ0005,21,L00021,HGB,Hemoglobin,HEMATOLOGY,15.54,g/dL,13.5,17.5,15.54,15.54,g/dL,13.5,17.5,NORMAL,,WEEK 1,3,8/3/2025,7
STUDY001,LB,STUDY001-SUBJ0005,22,L00022,HCT,Hematocrit,HEMATOLOGY,45.4,%,41,51,45.4,45.4,%,41,51,NORMAL,,WEEK 1,3,8/3/2025,7
STUDY001,LB,STUDY001-SUBJ0005,23,L00023,WBC,White Blood Cell Count,HEMATOLOGY,4.37,10^9/L,4.5,11,4.37,4.37,10^9/L,4.5,11,LOW,,WEEK 1,3,8/3/2025,7
STUDY001,LB,STUDY001-SUBJ0005,24,L00024,PLT,Platelet Count,HEMATOLOGY,264.95,10^9/L,150,450,264.95,264.95,10^9/L,150,450,NORMAL,,WEEK 1,3,8/3/2025,7
STUDY001,LB,STUDY001-SUBJ0005,25,L00025,GLUC,Glucose,CHEMISTRY,88.53,mg/dL,70,100,88.53,88.53,mg/dL,70,100,NORMAL,,WEEK 1,3,8/3/2025,7
STUDY001,LB,STUDY001-SUBJ0005,26,L00026,BUN,Blood Urea Nitrogen,CHEMISTRY,17.84,mg/dL,7,20,17.84,17.84,mg/dL,7,20,NORMAL,,WEEK 1,3,8/3/2025,7
STUDY001,LB,STUDY001-SUBJ0005,27,L00027,CREAT,Creatinine,CHEMISTRY,0.88,mg/dL,0.6,1.2,0.88,0.88,mg/dL,0.6,1.2,NORMAL,,WEEK 1,3,8/3/2025,7
STUDY001,LB,STUDY001-SUBJ0005,28,L00028,BILI,Total Bilirubin,CHEMISTRY,0.71,mg/dL,0.1,1.2,0.71,0.71,mg/dL,0.1,1.2,NORMAL,,WEEK 1,3,8/3/2025,7
STUDY001,LB,STUDY001-SUBJ0005,29,L00029,ALP,Alkaline Phosphatase,CHEMISTRY,124.85,U/L,44,147,124.85,124.85,U/L,44,147,NORMAL,,WEEK 1,3,8/3/2025,7
STUDY001,LB,STUDY001-SUBJ0005,30,L00030,ALT,Alanine Aminotransferase,CHEMISTRY,34.43,U/L,7,56,34.43,34.43,U/L,7,56,NORMAL,,WEEK 1,3,8/3/2025,7
STUDY001,LB,STUDY001-SUBJ0005,31,L00031,HGB,Hemoglobin,HEMATOLOGY,15.73,g/dL,13.5,17.5,15.73,15.73,g/dL,13.5,17.5,NORMAL,,WEEK 2,4,8/10/2025,14
STUDY001,LB,STUDY001-SUBJ0005,32,L00032,HCT,Hematocrit,HEMATOLOGY,45.53,%,41,51,45.53,45.53,%,41,51,NORMAL,,WEEK 2,4,8/10/2025,14
STUDY001,LB,STUDY001-SUBJ0005,33,L00033,WBC,White Blood Cell Count,HEMATOLOGY,4.36,10^9/L,4.5,11,4.36,4.36,10^9/L,4.5,11,LOW,,WEEK 2,4,8/10/2025,14
STUDY001,LB,STUDY001-SUBJ0005,34,L00034,PLT,Platelet Count,HEMATOLOGY,261.95,10^9/L,150,450,261.95,261.95,10^9/L,150,450,NORMAL,,WEEK 2,4,8/10/2025,14
STUDY001,LB,STUDY001-SUBJ0005,35,L00035,GLUC,Glucose,CHEMISTRY,87.5,mg/dL,70,100,87.5,87.5,mg/dL,70,100,NORMAL,,WEEK 2,4,8/10/2025,14
STUDY001,LB,STUDY001-SUBJ0005,36,L00036,BUN,Blood Urea Nitrogen,CHEMISTRY,18.27,mg/dL,7,20,18.27,18.27,mg/dL,7,20,NORMAL,,WEEK 2,4,8/10/2025,14
STUDY001,LB,STUDY001-SUBJ0005,37,L00037,CREAT,Creatinine,CHEMISTRY,0.88,mg/dL,0.6,1.2,0.88,0.88,mg/dL,0.6,1.2,NORMAL,,WEEK 2,4,8/10/2025,14
STUDY001,LB,STUDY001-SUBJ0005,38,L00038,BILI,Total Bilirubin,CHEMISTRY,0.75,mg/dL,0.1,1.2,0.75,0.75,mg/dL,0.1,1.2,NORMAL,,WEEK 2,4,8/10/2025,14
STUDY001,LB,STUDY001-SUBJ0005,39,L00039,ALP,Alkaline Phosphatase,CHEMISTRY,126.35,U/L,44,147,126.35,126.35,U/L,44,147,NORMAL,,WEEK 2,4,8/10/2025,14
STUDY001,LB,STUDY001-SUBJ0005,40,L00040,ALT,Alanine Aminotransferase,CHEMISTRY,34.23,U/L,7,56,34.23,34.23,U/L,7,56,NORMAL,,WEEK 2,4,8/10/2025,14
STUDY001,LB,STUDY001-SUBJ0005,41,L00041,HGB,Hemoglobin,HEMATOLOGY,15.67,g/dL,13.5,17.5,15.67,15.67,g/dL,13.5,17.5,NORMAL,,WEEK 4,5,8/24/2025,28
STUDY001,LB,STUDY001-SUBJ0005,42,L00042,HCT,Hematocrit,HEMATOLOGY,46.26,%,41,51,46.26,46.26,%,41,51,NORMAL,,WEEK 4,5,8/24/2025,28
STUDY001,LB,STUDY001-SUBJ0005,43,L00043,WBC,White Blood Cell Count,HEMATOLOGY,4.41,10^9/L,4.5,11,4.41,4.41,10^9/L,4.5,11,LOW,,WEEK 4,5,8/24/2025,28
STUDY001,LB,STUDY001-SUBJ0005,44,L00044,PLT,Platelet Count,HEMATOLOGY,269.78,10^9/L,150,450,269.78,269.78,10^9/L,150,450,NORMAL,,WEEK 4,5,8/24/2025,28
STUDY001,LB,STUDY001-SUBJ0005,45,L00045,GLUC,Glucose,CHEMISTRY,89.19,mg/dL,70,100,89.19,89.19,mg/dL,70,100,NORMAL,,WEEK 4,5,8/24/2025,28
STUDY001,LB,STUDY001-SUBJ0005,46,L00046,BUN,Blood Urea Nitrogen,CHEMISTRY,18.14,mg/dL,7,20,18.14,18.14,mg/dL,7,20,NORMAL,,WEEK 4,5,8/24/2025,28
STUDY001,LB,STUDY001-SUBJ0005,47,L00047,CREAT,Creatinine,CHEMISTRY,0.89,mg/dL,0.6,1.2,0.89,0.89,mg/dL,0.6,1.2,NORMAL,,WEEK 4,5,8/24/2025,28
STUDY001,LB,STUDY001-SUBJ0005,48,L00048,BILI,Total Bilirubin,CHEMISTRY,0.76,mg/dL,0.1,1.2,0.76,0.76,mg/dL,0.1,1.2,NORMAL,,WEEK 4,5,8/24/2025,28
STUDY001,LB,STUDY001-SUBJ0005,49,L00049,ALP,Alkaline Phosphatase,CHEMISTRY,126.97,U/L,44,147,126.97,126.97,U/L,44,147,NORMAL,,WEEK 4,5,8/24/2025,28
STUDY001,LB,STUDY001-SUBJ0005,50,L00050,ALT,Alanine Aminotransferase,CHEMISTRY,33.9,U/L,7,56,33.9,33.9,U/L,7,56,NORMAL,,WEEK 4,5,8/24/2025,28
STUDY001,LB,STUDY001-SUBJ0005,51,L00051,HGB,Hemoglobin,HEMATOLOGY,15.76,g/dL,13.5,17.5,15.76,15.76,g/dL,13.5,17.5,NORMAL,,WEEK 8,6,9/21/2025,56
STUDY001,LB,STUDY001-SUBJ0005,52,L00052,HCT,Hematocrit,HEMATOLOGY,44.98,%,41,51,44.98,44.98,%,41,51,NORMAL,,WEEK 8,6,9/21/2025,56
STUDY001,LB,STUDY001-SUBJ0005,53,L00053,WBC,White Blood Cell Count,HEMATOLOGY,4.46,10^9/L,4.5,11,4.46,4.46,10^9/L,4.5,11,LOW,,WEEK 8,6,9/21/2025,56
STUDY001,LB,STUDY001-SUBJ0005,54,L00054,PLT,Platelet Count,HEMATOLOGY,255.23,10^9/L,150,450,255.23,255.23,10^9/L,150,450,NORMAL,,WEEK 8,6,9/21/2025,56
STUDY001,LB,STUDY001-SUBJ0005,55,L00055,GLUC,Glucose,CHEMISTRY,88.13,mg/dL,70,100,88.13,88.13,mg/dL,70,100,NORMAL,,WEEK 8,6,9/21/2025,56
STUDY001,LB,STUDY001-SUBJ0005,56,L00056,BUN,Blood Urea Nitrogen,CHEMISTRY,18.25,mg/dL,7,20,18.25,18.25,mg/dL,7,20,NORMAL,,WEEK 8,6,9/21/2025,56
STUDY001,LB,STUDY001-SUBJ0005,57,L00057,CREAT,Creatinine,CHEMISTRY,0.88,mg/dL,0.6,1.2,0.88,0.88,mg/dL,0.6,1.2,NORMAL,,WEEK 8,6,9/21/2025,56
STUDY001,LB,STUDY001-SUBJ0005,58,L00058,BILI,Total Bilirubin,CHEMISTRY,0.78,mg/dL,0.1,1.2,0.78,0.78,mg/dL,0.1,1.2,NORMAL,,WEEK 8,6,9/21/2025,56
STUDY001,LB,STUDY001-SUBJ0005,59,L00059,ALP,Alkaline Phosphatase,CHEMISTRY,122.11,U/L,44,147,122.11,122.11,U/L,44,147,NORMAL,,WEEK 8,6,9/21/2025,56
STUDY001,LB,STUDY001-SUBJ0005,60,L00060,ALT,Alanine Aminotransferase,CHEMISTRY,32.94,U/L,7,56,32.94,32.94,U/L,7,56,NORMAL,,WEEK 8,6,9/21/2025,56
STUDY001,LB,STUDY001-SUBJ0005,61,L00061,HGB,Hemoglobin,HEMATOLOGY,15.47,g/dL,13.5,17.5,15.47,15.47,g/dL,13.5,17.5,NORMAL,,WEEK 12,7,10/19/2025,84
STUDY001,LB,STUDY001-SUBJ0005,62,L00062,HCT,Hematocrit,HEMATOLOGY,45.16,%,41,51,45.16,45.16,%,41,51,NORMAL,,WEEK 12,7,10/19/2025,84
STUDY001,LB,STUDY001-SUBJ0005,63,L00063,WBC,White Blood Cell Count,HEMATOLOGY,3.97,10^9/L,4.5,11,3.97,3.97,10^9/L,4.5,11,LOW,,WEEK 12,7,10/19/2025,84
STUDY001,LB,STUDY001-SUBJ0005,64,L00064,PLT,Platelet Count,HEMATOLOGY,255.36,10^9/L,150,450,255.36,255.36,10^9/L,150,450,NORMAL,,WEEK 12,7,10/19/2025,84
STUDY001,LB,STUDY001-SUBJ0005,65,L00065,GLUC,Glucose,CHEMISTRY,87.42,mg/dL,70,100,87.42,87.42,mg/dL,70,100,NORMAL,,WEEK 12,7,10/19/2025,84
STUDY001,LB,STUDY001-SUBJ0005,66,L00066,BUN,Blood Urea Nitrogen,CHEMISTRY,17.83,mg/dL,7,20,17.83,17.83,mg/dL,7,20,NORMAL,,WEEK 12,7,10/19/2025,84
STUDY001,LB,STUDY001-SUBJ0005,67,L00067,CREAT,Creatinine,CHEMISTRY,0.89,mg/dL,0.6,1.2,0.89,0.89,mg/dL,0.6,1.2,NORMAL,,WEEK 12,7,10/19/2025,84
STUDY001,LB,STUDY001-SUBJ0005,68,L00068,BILI,Total Bilirubin,CHEMISTRY,0.75,mg/dL,0.1,1.2,0.75,0.75,mg/dL,0.1,1.2,NORMAL,,WEEK 12,7,10/19/2025,84
STUDY001,LB,STUDY001-SUBJ0005,69,L00069,ALP,Alkaline Phosphatase,CHEMISTRY,123.5,U/L,44,147,123.5,123.5,U/L,44,147,NORMAL,,WEEK 12,7,10/19/2025,84
STUDY001,LB,STUDY001-SUBJ0005,70,L00070,ALT,Alanine Aminotransferase,CHEMISTRY,34.1,U/L,7,56,34.1,34.1,U/L,7,56,NORMAL,,WEEK 12,7,10/19/2025,84
STUDY001,LB,STUDY001-SUBJ0005,71,L00071,HGB,Hemoglobin,HEMATOLOGY,15.74,g/dL,13.5,17.5,15.74,15.74,g/dL,13.5,17.5,NORMAL,,WEEK 16,8,11/16/2025,112
STUDY001,LB,STUDY001-SUBJ0005,72,L00072,HCT,Hematocrit,HEMATOLOGY,45.57,%,41,51,45.57,45.57,%,41,51,NORMAL,,WEEK 16,8,11/16/2025,112
STUDY001,LB,STUDY001-SUBJ0005,73,L00073,WBC,White Blood Cell Count,HEMATOLOGY,4.09,10^9/L,4.5,11,4.09,4.09,10^9/L,4.5,11,LOW,,WEEK 16,8,11/16/2025,112
STUDY001,LB,STUDY001-SUBJ0005,74,L00074,PLT,Platelet Count,HEMATOLOGY,258.38,10^9/L,150,450,258.38,258.38,10^9/L,150,450,NORMAL,,WEEK 16,8,11/16/2025,112
STUDY001,LB,STUDY001-SUBJ0005,75,L00075,GLUC,Glucose,CHEMISTRY,87.46,mg/dL,70,100,87.46,87.46,mg/dL,70,100,NORMAL,,WEEK 16,8,11/16/2025,112
STUDY001,LB,STUDY001-SUBJ0005,76,L00076,BUN,Blood Urea Nitrogen,CHEMISTRY,18.04,mg/dL,7,20,18.04,18.04,mg/dL,7,20,NORMAL,,WEEK 16,8,11/16/2025,112
STUDY001,LB,STUDY001-SUBJ0005,77,L00077,CREAT,Creatinine,CHEMISTRY,0.9,mg/dL,0.6,1.2,0.9,0.9,mg/dL,0.6,1.2,NORMAL,,WEEK 16,8,11/16/2025,112
STUDY001,LB,STUDY001-SUBJ0005,78,L00078,BILI,Total Bilirubin,CHEMISTRY,0.73,mg/dL,0.1,1.2,0.73,0.73,mg/dL,0.1,1.2,NORMAL,,WEEK 16,8,11/16/2025,112
STUDY001,LB,STUDY001-SUBJ0005,79,L00079,ALP,Alkaline Phosphatase,CHEMISTRY,124.3,U/L,44,147,124.3,124.3,U/L,44,147,NORMAL,,WEEK 16,8,11/16/2025,112
STUDY001,LB,STUDY001-SUBJ0005,80,L00080,ALT,Alanine Aminotransferase,CHEMISTRY,33.87,U/L,7,56,33.87,33.87,U/L,7,56,NORMAL,,WEEK 16,8,11/16/2025,112
STUDY001,LB,STUDY001-SUBJ0005,81,L00081,HGB,Hemoglobin,HEMATOLOGY,15.44,g/dL,13.5,17.5,15.44,15.44,g/dL,13.5,17.5,NORMAL,,END OF TREATMENT,9,12/14/2025,140
STUDY001,LB,STUDY001-SUBJ0005,82,L00082,HCT,Hematocrit,HEMATOLOGY,45.48,%,41,51,45.48,45.48,%,41,51,NORMAL,,END OF TREATMENT,9,12/14/2025,140
STUDY001,LB,STUDY001-SUBJ0005,83,L00083,WBC,White Blood Cell Count,HEMATOLOGY,3.86,10^9/L,4.5,11,3.86,3.86,10^9/L,4.5,11,LOW,,END OF TREATMENT,9,12/14/2025,140
STUDY001,LB,STUDY001-SUBJ0005,84,L00084,PLT,Platelet Count,HEMATOLOGY,254.76,10^9/L,150,450,254.76,254.76,10^9/L,150,450,NORMAL,,END OF TREATMENT,9,12/14/2025,140
STUDY001,LB,STUDY001-SUBJ0005,85,L00085,GLUC,Glucose,CHEMISTRY,87.3,mg/dL,70,100,87.3,87.3,mg/dL,70,100,NORMAL,,END OF TREATMENT,9,12/14/2025,140
STUDY001,LB,STUDY001-SUBJ0005,86,L00086,BUN,Blood Urea Nitrogen,CHEMISTRY,18.53,mg/dL,7,20,18.53,18.53,mg/dL,7,20,NORMAL,,END OF TREATMENT,9,12/14/2025,140
STUDY001,LB,STUDY001-SUBJ0005,87,L00087,CREAT,Creatinine,CHEMISTRY,0.88,mg/dL,0.6,1.2,0.88,0.88,mg/dL,0.6,1.2,NORMAL,,END OF TREATMENT,9,12/14/2025,140
STUDY001,LB,STUDY001-SUBJ0005,88,L00088,BILI,Total Bilirubin,CHEMISTRY,0.75,mg/dL,0.1,1.2,0.75,0.75,mg/dL,0.1,1.2,NORMAL,,END OF TREATMENT,9,12/14/2025,140
STUDY001,LB,STUDY001-SUBJ0005,89,L00089,ALP,Alkaline Phosphatase,CHEMISTRY,124.51,U/L,44,147,124.51,124.51,U/L,44,147,NORMAL,,END OF TREATMENT,9,12/14/2025,140
STUDY001,LB,STUDY001-SUBJ0005,90,L00090,ALT,Alanine Aminotransferase,CHEMISTRY,34.09,U/L,7,56,34.09,34.09,U/L,7,56,NORMAL,,END OF TREATMENT,9,12/14/2025,140
STUDY001,LB,STUDY001-SUBJ0006,1,L00001,HGB,Hemoglobin,HEMATOLOGY,13.99,g/dL,13.5,17.5,13.99,13.99,g/dL,13.5,17.5,NORMAL,,SCREENING,1,9/11/2025,-14
STUDY001,LB,STUDY001-SUBJ0006,2,L00002,HCT,Hematocrit,HEMATOLOGY,47.49,%,41,51,47.49,47.49,%,41,51,NORMAL,,SCREENING,1,9/11/2025,-14
STUDY001,LB,STUDY001-SUBJ0006,3,L00003,WBC,White Blood Cell Count,HEMATOLOGY,6.55,10^9/L,4.5,11,6.55,6.55,10^9/L,4.5,11,NORMAL,,SCREENING,1,9/11/2025,-14
STUDY001,LB,STUDY001-SUBJ0006,4,L00004,PLT,Platelet Count,HEMATOLOGY,317.36,10^9/L,150,450,317.36,317.36,10^9/L,150,450,NORMAL,,SCREENING,1,9/11/2025,-14
STUDY001,LB,STUDY001-SUBJ0006,5,L00005,GLUC,Glucose,CHEMISTRY,92.52,mg/dL,70,100,92.52,92.52,mg/dL,70,100,NORMAL,,SCREENING,1,9/11/2025,-14
STUDY001,LB,STUDY001-SUBJ0006,6,L00006,BUN,Blood Urea Nitrogen,CHEMISTRY,7.11,mg/dL,7,20,7.11,7.11,mg/dL,7,20,NORMAL,,SCREENING,1,9/11/2025,-14
STUDY001,LB,STUDY001-SUBJ0006,7,L00007,CREAT,Creatinine,CHEMISTRY,0.7,mg/dL,0.6,1.2,0.7,0.7,mg/dL,0.6,1.2,NORMAL,,SCREENING,1,9/11/2025,-14
STUDY001,LB,STUDY001-SUBJ0006,8,L00008,BILI,Total Bilirubin,CHEMISTRY,0.89,mg/dL,0.1,1.2,0.89,0.89,mg/dL,0.1,1.2,NORMAL,,SCREENING,1,9/11/2025,-14
STUDY001,LB,STUDY001-SUBJ0006,9,L00009,ALP,Alkaline Phosphatase,CHEMISTRY,96.75,U/L,44,147,96.75,96.75,U/L,44,147,NORMAL,,SCREENING,1,9/11/2025,-14
STUDY001,LB,STUDY001-SUBJ0006,10,L00010,ALT,Alanine Aminotransferase,CHEMISTRY,31.54,U/L,7,56,31.54,31.54,U/L,7,56,NORMAL,,SCREENING,1,9/11/2025,-14
STUDY001,LB,STUDY001-SUBJ0006,11,L00011,HGB,Hemoglobin,HEMATOLOGY,13.83,g/dL,13.5,17.5,13.83,13.83,g/dL,13.5,17.5,NORMAL,Y,BASELINE,2,9/25/2025,1
STUDY001,LB,STUDY001-SUBJ0006,12,L00012,HCT,Hematocrit,HEMATOLOGY,47.46,%,41,51,47.46,47.46,%,41,51,NORMAL,Y,BASELINE,2,9/25/2025,1
STUDY001,LB,STUDY001-SUBJ0006,13,L00013,WBC,White Blood Cell Count,HEMATOLOGY,6.54,10^9/L,4.5,11,6.54,6.54,10^9/L,4.5,11,NORMAL,Y,BASELINE,2,9/25/2025,1
STUDY001,LB,STUDY001-SUBJ0006,14,L00014,PLT,Platelet Count,HEMATOLOGY,311.57,10^9/L,150,450,311.57,311.57,10^9/L,150,450,NORMAL,Y,BASELINE,2,9/25/2025,1
STUDY001,LB,STUDY001-SUBJ0006,15,L00015,GLUC,Glucose,CHEMISTRY,91.02,mg/dL,70,100,91.02,91.02,mg/dL,70,100,NORMAL,Y,BASELINE,2,9/25/2025,1
STUDY001,LB,STUDY001-SUBJ0006,16,L00016,BUN,Blood Urea Nitrogen,CHEMISTRY,6.91,mg/dL,7,20,6.91,6.91,mg/dL,7,20,LOW,Y,BASELINE,2,9/25/2025,1
STUDY001,LB,STUDY001-SUBJ0006,17,L00017,CREAT,Creatinine,CHEMISTRY,0.7,mg/dL,0.6,1.2,0.7,0.7,mg/dL,0.6,1.2,NORMAL,Y,BASELINE,2,9/25/2025,1
STUDY001,LB,STUDY001-SUBJ0006,18,L00018,BILI,Total Bilirubin,CHEMISTRY,0.86,mg/dL,0.1,1.2,0.86,0.86,mg/dL,0.1,1.2,NORMAL,Y,BASELINE,2,9/25/2025,1
STUDY001,LB,STUDY001-SUBJ0006,19,L00019,ALP,Alkaline Phosphatase,CHEMISTRY,96.4,U/L,44,147,96.4,96.4,U/L,44,147,NORMAL,Y,BASELINE,2,9/25/2025,1
STUDY001,LB,STUDY001-SUBJ0006,20,L00020,ALT,Alanine Aminotransferase,CHEMISTRY,31.57,U/L,7,56,31.57,31.57,U/L,7,56,NORMAL,Y,BASELINE,2,9/25/2025,1
STUDY001,LB,STUDY001-SUBJ0006,21,L00021,HGB,Hemoglobin,HEMATOLOGY,14.07,g/dL,13.5,17.5,14.07,14.07,g/dL,13.5,17.5,NORMAL,,WEEK 1,3,10/1/2025,7
STUDY001,LB,STUDY001-SUBJ0006,22,L00022,HCT,Hematocrit,HEMATOLOGY,47.24,%,41,51,47.24,47.24,%,41,51,NORMAL,,WEEK 1,3,10/1/2025,7
STUDY001,LB,STUDY001-SUBJ0006,23,L00023,WBC,White Blood Cell Count,HEMATOLOGY,6.46,10^9/L,4.5,11,6.46,6.46,10^9/L,4.5,11,NORMAL,,WEEK 1,3,10/1/2025,7
STUDY001,LB,STUDY001-SUBJ0006,24,L00024,PLT,Platelet Count,HEMATOLOGY,315.81,10^9/L,150,450,315.81,315.81,10^9/L,150,450,NORMAL,,WEEK 1,3,10/1/2025,7
STUDY001,LB,STUDY001-SUBJ0006,25,L00025,GLUC,Glucose,CHEMISTRY,91.46,mg/dL,70,100,91.46,91.46,mg/dL,70,100,NORMAL,,WEEK 1,3,10/1/2025,7
STUDY001,LB,STUDY001-SUBJ0006,26,L00026,BUN,Blood Urea Nitrogen,CHEMISTRY,7.16,mg/dL,7,20,7.16,7.16,mg/dL,7,20,NORMAL,,WEEK 1,3,10/1/2025,7
STUDY001,LB,STUDY001-SUBJ0006,27,L00027,CREAT,Creatinine,CHEMISTRY,0.73,mg/dL,0.6,1.2,0.73,0.73,mg/dL,0.6,1.2,NORMAL,,WEEK 1,3,10/1/2025,7
STUDY001,LB,STUDY001-SUBJ0006,28,L00028,BILI,Total Bilirubin,CHEMISTRY,0.89,mg/dL,0.1,1.2,0.89,0.89,mg/dL,0.1,1.2,NORMAL,,WEEK 1,3,10/1/2025,7
STUDY001,LB,STUDY001-SUBJ0006,29,L00029,ALP,Alkaline Phosphatase,CHEMISTRY,97.16,U/L,44,147,97.16,97.16,U/L,44,147,NORMAL,,WEEK 1,3,10/1/2025,7
STUDY001,LB,STUDY001-SUBJ0006,30,L00030,ALT,Alanine Aminotransferase,CHEMISTRY,30.49,U/L,7,56,30.49,30.49,U/L,7,56,NORMAL,,WEEK 1,3,10/1/2025,7
STUDY001,LB,STUDY001-SUBJ0006,31,L00031,HGB,Hemoglobin,HEMATOLOGY,13.84,g/dL,13.5,17.5,13.84,13.84,g/dL,13.5,17.5,NORMAL,,WEEK 2,4,10/8/2025,14
STUDY001,LB,STUDY001-SUBJ0006,32,L00032,HCT,Hematocrit,HEMATOLOGY,47.4,%,41,51,47.4,47.4,%,41,51,NORMAL,,WEEK 2,4,10/8/2025,14
STUDY001,LB,STUDY001-SUBJ0006,33,L00033,WBC,White Blood Cell Count,HEMATOLOGY,6.64,10^9/L,4.5,11,6.64,6.64,10^9/L,4.5,11,NORMAL,,WEEK 2,4,10/8/2025,14
STUDY001,LB,STUDY001-SUBJ0006,34,L00034,PLT,Platelet Count,HEMATOLOGY,319.13,10^9/L,150,450,319.13,319.13,10^9/L,150,450,NORMAL,,WEEK 2,4,10/8/2025,14
STUDY001,LB,STUDY001-SUBJ0006,35,L00035,GLUC,Glucose,CHEMISTRY,89.56,mg/dL,70,100,89.56,89.56,mg/dL,70,100,NORMAL,,WEEK 2,4,10/8/2025,14
STUDY001,LB,STUDY001-SUBJ0006,36,L00036,BUN,Blood Urea Nitrogen,CHEMISTRY,6.59,mg/dL,7,20,6.59,6.59,mg/dL,7,20,LOW,,WEEK 2,4,10/8/2025,14
STUDY001,LB,STUDY001-SUBJ0006,37,L00037,CREAT,Creatinine,CHEMISTRY,0.73,mg/dL,0.6,1.2,0.73,0.73,mg/dL,0.6,1.2,NORMAL,,WEEK 2,4,10/8/2025,14
STUDY001,LB,STUDY001-SUBJ0006,38,L00038,BILI,Total Bilirubin,CHEMISTRY,0.89,mg/dL,0.1,1.2,0.89,0.89,mg/dL,0.1,1.2,NORMAL,,WEEK 2,4,10/8/2025,14
STUDY001,LB,STUDY001-SUBJ0006,39,L00039,ALP,Alkaline Phosphatase,CHEMISTRY,95.53,U/L,44,147,95.53,95.53,U/L,44,147,NORMAL,,WEEK 2,4,10/8/2025,14
STUDY001,LB,STUDY001-SUBJ0006,40,L00040,ALT,Alanine Aminotransferase,CHEMISTRY,31.26,U/L,7,56,31.26,31.26,U/L,7,56,NORMAL,,WEEK 2,4,10/8/2025,14
STUDY001,LB,STUDY001-SUBJ0006,41,L00041,HGB,Hemoglobin,HEMATOLOGY,13.85,g/dL,13.5,17.5,13.85,13.85,g/dL,13.5,17.5,NORMAL,,WEEK 4,5,10/22/2025,28
STUDY001,LB,STUDY001-SUBJ0006,42,L00042,HCT,Hematocrit,HEMATOLOGY,47.24,%,41,51,47.24,47.24,%,41,51,NORMAL,,WEEK 4,5,10/22/2025,28
STUDY001,LB,STUDY001-SUBJ0006,43,L00043,WBC,White Blood Cell Count,HEMATOLOGY,6.52,10^9/L,4.5,11,6.52,6.52,10^9/L,4.5,11,NORMAL,,WEEK 4,5,10/22/2025,28
STUDY001,LB,STUDY001-SUBJ0006,44,L00044,PLT,Platelet Count,HEMATOLOGY,317.25,10^9/L,150,450,317.25,317.25,10^9/L,150,450,NORMAL,,WEEK 4,5,10/22/2025,28
STUDY001,LB,STUDY001-SUBJ0006,45,L00045,GLUC,Glucose,CHEMISTRY,92.02,mg/dL,70,100,92.02,92.02,mg/dL,70,100,NORMAL,,WEEK 4,5,10/22/2025,28
STUDY001,LB,STUDY001-SUBJ0006,46,L00046,BUN,Blood Urea Nitrogen,CHEMISTRY,7.24,mg/dL,7,20,7.24,7.24,mg/dL,7,20,NORMAL,,WEEK 4,5,10/22/2025,28
STUDY001,LB,STUDY001-SUBJ0006,47,L00047,CREAT,Creatinine,CHEMISTRY,0.72,mg/dL,0.6,1.2,0.72,0.72,mg/dL,0.6,1.2,NORMAL,,WEEK 4,5,10/22/2025,28
STUDY001,LB,STUDY001-SUBJ0006,48,L00048,BILI,Total Bilirubin,CHEMISTRY,0.87,mg/dL,0.1,1.2,0.87,0.87,mg/dL,0.1,1.2,NORMAL,,WEEK 4,5,10/22/2025,28
STUDY001,LB,STUDY001-SUBJ0006,49,L00049,ALP,Alkaline Phosphatase,CHEMISTRY,98.08,U/L,44,147,98.08,98.08,U/L,44,147,NORMAL,,WEEK 4,5,10/22/2025,28
STUDY001,LB,STUDY001-SUBJ0006,50,L00050,ALT,Alanine Aminotransferase,CHEMISTRY,34.08,U/L,7,56,34.08,34.08,U/L,7,56,NORMAL,,WEEK 4,5,10/22/2025,28
STUDY001,LB,STUDY001-SUBJ0006,51,L00051,HGB,Hemoglobin,HEMATOLOGY,13.94,g/dL,13.5,17.5,13.94,13.94,g/dL,13.5,17.5,NORMAL,,WEEK 8,6,11/19/2025,56
STUDY001,LB,STUDY001-SUBJ0006,52,L00052,HCT,Hematocrit,HEMATOLOGY,47.45,%,41,51,47.45,47.45,%,41,51,NORMAL,,WEEK 8,6,11/19/2025,56
STUDY001,LB,STUDY001-SUBJ0006,53,L00053,WBC,White Blood Cell Count,HEMATOLOGY,6.39,10^9/L,4.5,11,6.39,6.39,10^9/L,4.5,11,NORMAL,,WEEK 8,6,11/19/2025,56
STUDY001,LB,STUDY001-SUBJ0006,54,L00054,PLT,Platelet Count,HEMATOLOGY,324.09,10^9/L,150,450,324.09,324.09,10^9/L,150,450,NORMAL,,WEEK 8,6,11/19/2025,56
STUDY001,LB,STUDY001-SUBJ0006,55,L00055,GLUC,Glucose,CHEMISTRY,89.79,mg/dL,70,100,89.79,89.79,mg/dL,70,100,NORMAL,,WEEK 8,6,11/19/2025,56
STUDY001,LB,STUDY001-SUBJ0006,56,L00056,BUN,Blood Urea Nitrogen,CHEMISTRY,6.79,mg/dL,7,20,6.79,6.79,mg/dL,7,20,LOW,,WEEK 8,6,11/19/2025,56
STUDY001,LB,STUDY001-SUBJ0006,57,L00057,CREAT,Creatinine,CHEMISTRY,0.73,mg/dL,0.6,1.2,0.73,0.73,mg/dL,0.6,1.2,NORMAL,,WEEK 8,6,11/19/2025,56
STUDY001,LB,STUDY001-SUBJ0006,58,L00058,BILI,Total Bilirubin,CHEMISTRY,0.91,mg/dL,0.1,1.2,0.91,0.91,mg/dL,0.1,1.2,NORMAL,,WEEK 8,6,11/19/2025,56
STUDY001,LB,STUDY001-SUBJ0006,59,L00059,ALP,Alkaline Phosphatase,CHEMISTRY,96.71,U/L,44,147,96.71,96.71,U/L,44,147,NORMAL,,WEEK 8,6,11/19/2025,56
STUDY001,LB,STUDY001-SUBJ0006,60,L00060,ALT,Alanine Aminotransferase,CHEMISTRY,32.01,U/L,7,56,32.01,32.01,U/L,7,56,NORMAL,,WEEK 8,6,11/19/2025,56
STUDY001,LB,STUDY001-SUBJ0006,61,L00061,HGB,Hemoglobin,HEMATOLOGY,14.03,g/dL,13.5,17.5,14.03,14.03,g/dL,13.5,17.5,NORMAL,,WEEK 12,7,12/17/2025,84
STUDY001,LB,STUDY001-SUBJ0006,62,L00062,HCT,Hematocrit,HEMATOLOGY,47.43,%,41,51,47.43,47.43,%,41,51,NORMAL,,WEEK 12,7,12/17/2025,84
STUDY001,LB,STUDY001-SUBJ0006,63,L00063,WBC,White Blood Cell Count,HEMATOLOGY,6.56,10^9/L,4.5,11,6.56,6.56,10^9/L,4.5,11,NORMAL,,WEEK 12,7,12/17/2025,84
STUDY001,LB,STUDY001-SUBJ0006,64,L00064,PLT,Platelet Count,HEMATOLOGY,318.44,10^9/L,150,450,318.44,318.44,10^9/L,150,450,NORMAL,,WEEK 12,7,12/17/2025,84
STUDY001,LB,STUDY001-SUBJ0006,65,L00065,GLUC,Glucose,CHEMISTRY,92.05,mg/dL,70,100,92.05,92.05,mg/dL,70,100,NORMAL,,WEEK 12,7,12/17/2025,84
STUDY001,LB,STUDY001-SUBJ0006,66,L00066,BUN,Blood Urea Nitrogen,CHEMISTRY,7.35,mg/dL,7,20,7.35,7.35,mg/dL,7,20,NORMAL,,WEEK 12,7,12/17/2025,84
STUDY001,LB,STUDY001-SUBJ0006,67,L00067,CREAT,Creatinine,CHEMISTRY,0.75,mg/dL,0.6,1.2,0.75,0.75,mg/dL,0.6,1.2,NORMAL,,WEEK 12,7,12/17/2025,84
STUDY001,LB,STUDY001-SUBJ0006,68,L00068,BILI,Total Bilirubin,CHEMISTRY,0.86,mg/dL,0.1,1.2,0.86,0.86,mg/dL,0.1,1.2,NORMAL,,WEEK 12,7,12/17/2025,84
STUDY001,LB,STUDY001-SUBJ0006,69,L00069,ALP,Alkaline Phosphatase,CHEMISTRY,95.49,U/L,44,147,95.49,95.49,U/L,44,147,NORMAL,,WEEK 12,7,12/17/2025,84
STUDY001,LB,STUDY001-SUBJ0006,70,L00070,ALT,Alanine Aminotransferase,CHEMISTRY,31.17,U/L,7,56,31.17,31.17,U/L,7,56,NORMAL,,WEEK 12,7,12/17/2025,84
STUDY001,LB,STUDY001-SUBJ0006,71,L00071,HGB,Hemoglobin,HEMATOLOGY,13.99,g/dL,13.5,17.5,13.99,13.99,g/dL,13.5,17.5,NORMAL,,WEEK 16,8,1/14/2026,112
STUDY001,LB,STUDY001-SUBJ0006,72,L00072,HCT,Hematocrit,HEMATOLOGY,47.32,%,41,51,47.32,47.32,%,41,51,NORMAL,,WEEK 16,8,1/14/2026,112
STUDY001,LB,STUDY001-SUBJ0006,73,L00073,WBC,White Blood Cell Count,HEMATOLOGY,6.33,10^9/L,4.5,11,6.33,6.33,10^9/L,4.5,11,NORMAL,,WEEK 16,8,1/14/2026,112
STUDY001,LB,STUDY001-SUBJ0006,74,L00074,PLT,Platelet Count,HEMATOLOGY,325.28,10^9/L,150,450,325.28,325.28,10^9/L,150,450,NORMAL,,WEEK 16,8,1/14/2026,112
STUDY001,LB,STUDY001-SUBJ0006,75,L00075,GLUC,Glucose,CHEMISTRY,91.51,mg/dL,70,100,91.51,91.51,mg/dL,70,100,NORMAL,,WEEK 16,8,1/14/2026,112
STUDY001,LB,STUDY001-SUBJ0006,76,L00076,BUN,Blood Urea Nitrogen,CHEMISTRY,6.98,mg/dL,7,20,6.98,6.98,mg/dL,7,20,LOW,,WEEK 16,8,1/14/2026,112
STUDY001,LB,STUDY001-SUBJ0006,77,L00077,CREAT,Creatinine,CHEMISTRY,0.72,mg/dL,0.6,1.2,0.72,0.72,mg/dL,0.6,1.2,NORMAL,,WEEK 16,8,1/14/2026,112
STUDY001,LB,STUDY001-SUBJ0006,78,L00078,BILI,Total Bilirubin,CHEMISTRY,0.89,mg/dL,0.1,1.2,0.89,0.89,mg/dL,0.1,1.2,NORMAL,,WEEK 16,8,1/14/2026,112
STUDY001,LB,STUDY001-SUBJ0006,79,L00079,ALP,Alkaline Phosphatase,CHEMISTRY,96.34,U/L,44,147,96.34,96.34,U/L,44,147,NORMAL,,WEEK 16,8,1/14/2026,112
STUDY001,LB,STUDY001-SUBJ0006,80,L00080,ALT,Alanine Aminotransferase,CHEMISTRY,31.13,U/L,7,56,31.13,31.13,U/L,7,56,NORMAL,,WEEK 16,8,1/14/2026,112
STUDY001,LB,STUDY001-SUBJ0006,81,L00081,HGB,Hemoglobin,HEMATOLOGY,13.75,g/dL,13.5,17.5,13.75,13.75,g/dL,13.5,17.5,NORMAL,,END OF TREATMENT,9,2/11/2026,140
STUDY001,LB,STUDY001-SUBJ0006,82,L00082,HCT,Hematocrit,HEMATOLOGY,48.14,%,41,51,48.14,48.14,%,41,51,NORMAL,,END OF TREATMENT,9,2/11/2026,140
STUDY001,LB,STUDY001-SUBJ0006,83,L00083,WBC,White Blood Cell Count,HEMATOLOGY,6.57,10^9/L,4.5,11,6.57,6.57,10^9/L,4.5,11,NORMAL,,END OF TREATMENT,9,2/11/2026,140
STUDY001,LB,STUDY001-SUBJ0006,84,L00084,PLT,Platelet Count,HEMATOLOGY,321.39,10^9/L,150,450,321.39,321.39,10^9/L,150,450,NORMAL,,END OF TREATMENT,9,2/11/2026,140
STUDY001,LB,STUDY001-SUBJ0006,85,L00085,GLUC,Glucose,CHEMISTRY,93.33,mg/dL,70,100,93.33,93.33,mg/dL,70,100,NORMAL,,END OF TREATMENT,9,2/11/2026,140
STUDY001,LB,STUDY001-SUBJ0006,86,L00086,BUN,Blood Urea Nitrogen,CHEMISTRY,6.93,mg/dL,7,20,6.93,6.93,mg/dL,7,20,LOW,,END OF TREATMENT,9,2/11/2026,140
STUDY001,LB,STUDY001-SUBJ0006,87,L00087,CREAT,Creatinine,CHEMISTRY,0.73,mg/dL,0.6,1.2,0.73,0.73,mg/dL,0.6,1.2,NORMAL,,END OF TREATMENT,9,2/11/2026,140
STUDY001,LB,STUDY001-SUBJ0006,88,L00088,BILI,Total Bilirubin,CHEMISTRY,0.87,mg/dL,0.1,1.2,0.87,0.87,mg/dL,0.1,1.2,NORMAL,,END OF TREATMENT,9,2/11/2026,140
STUDY001,LB,STUDY001-SUBJ0006,89,L00089,ALP,Alkaline Phosphatase,CHEMISTRY,95.5,U/L,44,147,95.5,95.5,U/L,44,147,NORMAL,,END OF TREATMENT,9,2/11/2026,140
STUDY001,LB,STUDY001-SUBJ0006,90,L00090,ALT,Alanine Aminotransferase,CHEMISTRY,32.03,U/L,7,56,32.03,32.03,U/L,7,56,NORMAL,,END OF TREATMENT,9,2/11/2026,140
STUDY001,LB,STUDY001-SUBJ0007,1,L00001,HGB,Hemoglobin,HEMATOLOGY,13.98,g/dL,13.5,17.5,13.98,13.98,g/dL,13.5,17.5,NORMAL,,SCREENING,1,3/12/2025,-14
STUDY001,LB,STUDY001-SUBJ0007,2,L00002,HCT,Hematocrit,HEMATOLOGY,40.6,%,41,51,40.6,40.6,%,41,51,LOW,,SCREENING,1,3/12/2025,-14
STUDY001,LB,STUDY001-SUBJ0007,3,L00003,WBC,White Blood Cell Count,HEMATOLOGY,6.84,10^9/L,4.5,11,6.84,6.84,10^9/L,4.5,11,NORMAL,,SCREENING,1,3/12/2025,-14
STUDY001,LB,STUDY001-SUBJ0007,4,L00004,PLT,Platelet Count,HEMATOLOGY,326.51,10^9/L,150,450,326.51,326.51,10^9/L,150,450,NORMAL,,SCREENING,1,3/12/2025,-14
STUDY001,LB,STUDY001-SUBJ0007,5,L00005,GLUC,Glucose,CHEMISTRY,95.71,mg/dL,70,100,95.71,95.71,mg/dL,70,100,NORMAL,,SCREENING,1,3/12/2025,-14
STUDY001,LB,STUDY001-SUBJ0007,6,L00006,BUN,Blood Urea Nitrogen,CHEMISTRY,13.75,mg/dL,7,20,13.75,13.75,mg/dL,7,20,NORMAL,,SCREENING,1,3/12/2025,-14
STUDY001,LB,STUDY001-SUBJ0007,7,L00007,CREAT,Creatinine,CHEMISTRY,0.69,mg/dL,0.6,1.2,0.69,0.69,mg/dL,0.6,1.2,NORMAL,,SCREENING,1,3/12/2025,-14
STUDY001,LB,STUDY001-SUBJ0007,8,L00008,BILI,Total Bilirubin,CHEMISTRY,1.02,mg/dL,0.1,1.2,1.02,1.02,mg/dL,0.1,1.2,NORMAL,,SCREENING,1,3/12/2025,-14
STUDY001,LB,STUDY001-SUBJ0007,9,L00009,ALP,Alkaline Phosphatase,CHEMISTRY,82.09,U/L,44,147,82.09,82.09,U/L,44,147,NORMAL,,SCREENING,1,3/12/2025,-14
STUDY001,LB,STUDY001-SUBJ0007,10,L00010,ALT,Alanine Aminotransferase,CHEMISTRY,25.69,U/L,7,56,25.69,25.69,U/L,7,56,NORMAL,,SCREENING,1,3/12/2025,-14
STUDY001,LB,STUDY001-SUBJ0007,11,L00011,HGB,Hemoglobin,HEMATOLOGY,13.95,g/dL,13.5,17.5,13.95,13.95,g/dL,13.5,17.5,NORMAL,Y,BASELINE,2,3/26/2025,1
STUDY001,LB,STUDY001-SUBJ0007,12,L00012,HCT,Hematocrit,HEMATOLOGY,40.38,%,41,51,40.38,40.38,%,41,51,LOW,Y,BASELINE,2,3/26/2025,1
STUDY001,LB,STUDY001-SUBJ0007,13,L00013,WBC,White Blood Cell Count,HEMATOLOGY,6.35,10^9/L,4.5,11,6.35,6.35,10^9/L,4.5,11,NORMAL,Y,BASELINE,2,3/26/2025,1
STUDY001,LB,STUDY001-SUBJ0007,14,L00014,PLT,Platelet Count,HEMATOLOGY,329,10^9/L,150,450,329,329,10^9/L,150,450,NORMAL,Y,BASELINE,2,3/26/2025,1
STUDY001,LB,STUDY001-SUBJ0007,15,L00015,GLUC,Glucose,CHEMISTRY,93.33,mg/dL,70,100,93.33,93.33,mg/dL,70,100,NORMAL,Y,BASELINE,2,3/26/2025,1
STUDY001,LB,STUDY001-SUBJ0007,16,L00016,BUN,Blood Urea Nitrogen,CHEMISTRY,13.99,mg/dL,7,20,13.99,13.99,mg/dL,7,20,NORMAL,Y,BASELINE,2,3/26/2025,1
STUDY001,LB,STUDY001-SUBJ0007,17,L00017,CREAT,Creatinine,CHEMISTRY,0.69,mg/dL,0.6,1.2,0.69,0.69,mg/dL,0.6,1.2,NORMAL,Y,BASELINE,2,3/26/2025,1
STUDY001,LB,STUDY001-SUBJ0007,18,L00018,BILI,Total Bilirubin,CHEMISTRY,1.02,mg/dL,0.1,1.2,1.02,1.02,mg/dL,0.1,1.2,NORMAL,Y,BASELINE,2,3/26/2025,1
STUDY001,LB,STUDY001-SUBJ0007,19,L00019,ALP,Alkaline Phosphatase,CHEMISTRY,83.52,U/L,44,147,83.52,83.52,U/L,44,147,NORMAL,Y,BASELINE,2,3/26/2025,1
STUDY001,LB,STUDY001-SUBJ0007,20,L00020,ALT,Alanine Aminotransferase,CHEMISTRY,28.35,U/L,7,56,28.35,28.35,U/L,7,56,NORMAL,Y,BASELINE,2,3/26/2025,1
STUDY001,LB,STUDY001-SUBJ0007,21,L00021,HGB,Hemoglobin,HEMATOLOGY,14.08,g/dL,13.5,17.5,14.08,14.08,g/dL,13.5,17.5,NORMAL,,WEEK 1,3,4/1/2025,7
STUDY001,LB,STUDY001-SUBJ0007,22,L00022,HCT,Hematocrit,HEMATOLOGY,40.3,%,41,51,40.3,40.3,%,41,51,LOW,,WEEK 1,3,4/1/2025,7
STUDY001,LB,STUDY001-SUBJ0007,23,L00023,WBC,White Blood Cell Count,HEMATOLOGY,6.38,10^9/L,4.5,11,6.38,6.38,10^9/L,4.5,11,NORMAL,,WEEK 1,3,4/1/2025,7
STUDY001,LB,STUDY001-SUBJ0007,24,L00024,PLT,Platelet Count,HEMATOLOGY,323.24,10^9/L,150,450,323.24,323.24,10^9/L,150,450,NORMAL,,WEEK 1,3,4/1/2025,7
STUDY001,LB,STUDY001-SUBJ0007,25,L00025,GLUC,Glucose,CHEMISTRY,93.33,mg/dL,70,100,93.33,93.33,mg/dL,70,100,NORMAL,,WEEK 1,3,4/1/2025,7
STUDY001,LB,STUDY001-SUBJ0007,26,L00026,BUN,Blood Urea Nitrogen,CHEMISTRY,13.87,mg/dL,7,20,13.87,13.87,mg/dL,7,20,NORMAL,,WEEK 1,3,4/1/2025,7
STUDY001,LB,STUDY001-SUBJ0007,27,L00027,CREAT,Creatinine,CHEMISTRY,0.7,mg/dL,0.6,1.2,0.7,0.7,mg/dL,0.6,1.2,NORMAL,,WEEK 1,3,4/1/2025,7
STUDY001,LB,STUDY001-SUBJ0007,28,L00028,BILI,Total Bilirubin,CHEMISTRY,1.06,mg/dL,0.1,1.2,1.06,1.06,mg/dL,0.1,1.2,NORMAL,,WEEK 1,3,4/1/2025,7
STUDY001,LB,STUDY001-SUBJ0007,29,L00029,ALP,Alkaline Phosphatase,CHEMISTRY,81.82,U/L,44,147,81.82,81.82,U/L,44,147,NORMAL,,WEEK 1,3,4/1/2025,7
STUDY001,LB,STUDY001-SUBJ0007,30,L00030,ALT,Alanine Aminotransferase,CHEMISTRY,28.25,U/L,7,56,28.25,28.25,U/L,7,56,NORMAL,,WEEK 1,3,4/1/2025,7
STUDY001,LB,STUDY001-SUBJ0007,31,L00031,HGB,Hemoglobin,HEMATOLOGY,14.03,g/dL,13.5,17.5,14.03,14.03,g/dL,13.5,17.5,NORMAL,,WEEK 2,4,4/8/2025,14
STUDY001,LB,STUDY001-SUBJ0007,32,L00032,HCT,Hematocrit,HEMATOLOGY,40.31,%,41,51,40.31,40.31,%,41,51,LOW,,WEEK 2,4,4/8/2025,14
STUDY001,LB,STUDY001-SUBJ0007,33,L00033,WBC,White Blood Cell Count,HEMATOLOGY,6.42,10^9/L,4.5,11,6.42,6.42,10^9/L,4.5,11,NORMAL,,WEEK 2,4,4/8/2025,14
STUDY001,LB,STUDY001-SUBJ0007,34,L00034,PLT,Platelet Count,HEMATOLOGY,322.41,10^9/L,150,450,322.41,322.41,10^9/L,150,450,NORMAL,,WEEK 2,4,4/8/2025,14
STUDY001,LB,STUDY001-SUBJ0007,35,L00035,GLUC,Glucose,CHEMISTRY,94.35,mg/dL,70,100,94.35,94.35,mg/dL,70,100,NORMAL,,WEEK 2,4,4/8/2025,14
STUDY001,LB,STUDY001-SUBJ0007,36,L00036,BUN,Blood Urea Nitrogen,CHEMISTRY,13.54,mg/dL,7,20,13.54,13.54,mg/dL,7,20,NORMAL,,WEEK 2,4,4/8/2025,14
STUDY001,LB,STUDY001-SUBJ0007,37,L00037,CREAT,Creatinine,CHEMISTRY,0.68,mg/dL,0.6,1.2,0.68,0.68,mg/dL,0.6,1.2,NORMAL,,WEEK 2,4,4/8/2025,14
STUDY001,LB,STUDY001-SUBJ0007,38,L00038,BILI,Total Bilirubin,CHEMISTRY,1.03,mg/dL,0.1,1.2,1.03,1.03,mg/dL,0.1,1.2,NORMAL,,WEEK 2,4,4/8/2025,14
STUDY001,LB,STUDY001-SUBJ0007,39,L00039,ALP,Alkaline Phosphatase,CHEMISTRY,85.73,U/L,44,147,85.73,85.73,U/L,44,147,NORMAL,,WEEK 2,4,4/8/2025,14
STUDY001,LB,STUDY001-SUBJ0007,40,L00040,ALT,Alanine Aminotransferase,CHEMISTRY,27.03,U/L,7,56,27.03,27.03,U/L,7,56,NORMAL,,WEEK 2,4,4/8/2025,14
STUDY001,LB,STUDY001-SUBJ0007,41,L00041,HGB,Hemoglobin,HEMATOLOGY,13.89,g/dL,13.5,17.5,13.89,13.89,g/dL,13.5,17.5,NORMAL,,WEEK 4,5,4/22/2025,28
STUDY001,LB,STUDY001-SUBJ0007,42,L00042,HCT,Hematocrit,HEMATOLOGY,40.6,%,41,51,40.6,40.6,%,41,51,LOW,,WEEK 4,5,4/22/2025,28
STUDY001,LB,STUDY001-SUBJ0007,43,L00043,WBC,White Blood Cell Count,HEMATOLOGY,6.71,10^9/L,4.5,11,6.71,6.71,10^9/L,4.5,11,NORMAL,,WEEK 4,5,4/22/2025,28
STUDY001,LB,STUDY001-SUBJ0007,44,L00044,PLT,Platelet Count,HEMATOLOGY,317.68,10^9/L,150,450,317.68,317.68,10^9/L,150,450,NORMAL,,WEEK 4,5,4/22/2025,28
STUDY001,LB,STUDY001-SUBJ0007,45,L00045,GLUC,Glucose,CHEMISTRY,93.71,mg/dL,70,100,93.71,93.71,mg/dL,70,100,NORMAL,,WEEK 4,5,4/22/2025,28
STUDY001,LB,STUDY001-SUBJ0007,46,L00046,BUN,Blood Urea Nitrogen,CHEMISTRY,14,mg/dL,7,20,14,14,mg/dL,7,20,NORMAL,,WEEK 4,5,4/22/2025,28
STUDY001,LB,STUDY001-SUBJ0007,47,L00047,CREAT,Creatinine,CHEMISTRY,0.72,mg/dL,0.6,1.2,0.72,0.72,mg/dL,0.6,1.2,NORMAL,,WEEK 4,5,4/22/2025,28
STUDY001,LB,STUDY001-SUBJ0007,48,L00048,BILI,Total Bilirubin,CHEMISTRY,1.06,mg/dL,0.1,1.2,1.06,1.06,mg/dL,0.1,1.2,NORMAL,,WEEK 4,5,4/22/2025,28
STUDY001,LB,STUDY001-SUBJ0007,49,L00049,ALP,Alkaline Phosphatase,CHEMISTRY,84.62,U/L,44,147,84.62,84.62,U/L,44,147,NORMAL,,WEEK 4,5,4/22/2025,28
STUDY001,LB,STUDY001-SUBJ0007,50,L00050,ALT,Alanine Aminotransferase,CHEMISTRY,28.4,U/L,7,56,28.4,28.4,U/L,7,56,NORMAL,,WEEK 4,5,4/22/2025,28
STUDY001,LB,STUDY001-SUBJ0007,51,L00051,HGB,Hemoglobin,HEMATOLOGY,14.17,g/dL,13.5,17.5,14.17,14.17,g/dL,13.5,17.5,NORMAL,,WEEK 8,6,5/20/2025,56
STUDY001,LB,STUDY001-SUBJ0007,52,L00052,HCT,Hematocrit,HEMATOLOGY,40.2,%,41,51,40.2,40.2,%,41,51,LOW,,WEEK 8,6,5/20/2025,56
STUDY001,LB,STUDY001-SUBJ0007,53,L00053,WBC,White Blood Cell Count,HEMATOLOGY,6.72,10^9/L,4.5,11,6.72,6.72,10^9/L,4.5,11,NORMAL,,WEEK 8,6,5/20/2025,56
STUDY001,LB,STUDY001-SUBJ0007,54,L00054,PLT,Platelet Count,HEMATOLOGY,328.09,10^9/L,150,450,328.09,328.09,10^9/L,150,450,NORMAL,,WEEK 8,6,5/20/2025,56
STUDY001,LB,STUDY001-SUBJ0007,55,L00055,GLUC,Glucose,CHEMISTRY,93.59,mg/dL,70,100,93.59,93.59,mg/dL,70,100,NORMAL,,WEEK 8,6,5/20/2025,56
STUDY001,LB,STUDY001-SUBJ0007,56,L00056,BUN,Blood Urea Nitrogen,CHEMISTRY,14.05,mg/dL,7,20,14.05,14.05,mg/dL,7,20,NORMAL,,WEEK 8,6,5/20/2025,56
STUDY001,LB,STUDY001-SUBJ0007,57,L00057,CREAT,Creatinine,CHEMISTRY,0.7,mg/dL,0.6,1.2,0.7,0.7,mg/dL,0.6,1.2,NORMAL,,WEEK 8,6,5/20/2025,56
STUDY001,LB,STUDY001-SUBJ0007,58,L00058,BILI,Total Bilirubin,CHEMISTRY,1.02,mg/dL,0.1,1.2,1.02,1.02,mg/dL,0.1,1.2,NORMAL,,WEEK 8,6,5/20/2025,56
STUDY001,LB,STUDY001-SUBJ0007,59,L00059,ALP,Alkaline Phosphatase,CHEMISTRY,83.12,U/L,44,147,83.12,83.12,U/L,44,147,NORMAL,,WEEK 8,6,5/20/2025,56
STUDY001,LB,STUDY001-SUBJ0007,60,L00060,ALT,Alanine Aminotransferase,CHEMISTRY,26.79,U/L,7,56,26.79,26.79,U/L,7,56,NORMAL,,WEEK 8,6,5/20/2025,56
STUDY001,LB,STUDY001-SUBJ0007,61,L00061,HGB,Hemoglobin,HEMATOLOGY,14.13,g/dL,13.5,17.5,14.13,14.13,g/dL,13.5,17.5,NORMAL,,WEEK 12,7,6/17/2025,84
STUDY001,LB,STUDY001-SUBJ0007,62,L00062,HCT,Hematocrit,HEMATOLOGY,40.92,%,41,51,40.92,40.92,%,41,51,LOW,,WEEK 12,7,6/17/2025,84
STUDY001,LB,STUDY001-SUBJ0007,63,L00063,WBC,White Blood Cell Count,HEMATOLOGY,6.42,10^9/L,4.5,11,6.42,6.42,10^9/L,4.5,11,NORMAL,,WEEK 12,7,6/17/2025,84
STUDY001,LB,STUDY001-SUBJ0007,64,L00064,PLT,Platelet Count,HEMATOLOGY,325.34,10^9/L,150,450,325.34,325.34,10^9/L,150,450,NORMAL,,WEEK 12,7,6/17/2025,84
STUDY001,LB,STUDY001-SUBJ0007,65,L00065,GLUC,Glucose,CHEMISTRY,94.16,mg/dL,70,100,94.16,94.16,mg/dL,70,100,NORMAL,,WEEK 12,7,6/17/2025,84
STUDY001,LB,STUDY001-SUBJ0007,66,L00066,BUN,Blood Urea Nitrogen,CHEMISTRY,14.07,mg/dL,7,20,14.07,14.07,mg/dL,7,20,NORMAL,,WEEK 12,7,6/17/2025,84
STUDY001,LB,STUDY001-SUBJ0007,67,L00067,CREAT,Creatinine,CHEMISTRY,0.71,mg/dL,0.6,1.2,0.71,0.71,mg/dL,0.6,1.2,NORMAL,,WEEK 12,7,6/17/2025,84
STUDY001,LB,STUDY001-SUBJ0007,68,L00068,BILI,Total Bilirubin,CHEMISTRY,1.04,mg/dL,0.1,1.2,1.04,1.04,mg/dL,0.1,1.2,NORMAL,,WEEK 12,7,6/17/2025,84
STUDY001,LB,STUDY001-SUBJ0007,69,L00069,ALP,Alkaline Phosphatase,CHEMISTRY,81.68,U/L,44,147,81.68,81.68,U/L,44,147,NORMAL,,WEEK 12,7,6/17/2025,84
STUDY001,LB,STUDY001-SUBJ0007,70,L00070,ALT,Alanine Aminotransferase,CHEMISTRY,27.57,U/L,7,56,27.57,27.57,U/L,7,56,NORMAL,,WEEK 12,7,6/17/2025,84
STUDY001,LB,STUDY001-SUBJ0007,71,L00071,HGB,Hemoglobin,HEMATOLOGY,14.28,g/dL,13.5,17.5,14.28,14.28,g/dL,13.5,17.5,NORMAL,,WEEK 16,8,7/15/2025,112
STUDY001,LB,STUDY001-SUBJ0007,72,L00072,HCT,Hematocrit,HEMATOLOGY,40.92,%,41,51,40.92,40.92,%,41,51,LOW,,WEEK 16,8,7/15/2025,112
STUDY001,LB,STUDY001-SUBJ0007,73,L00073,WBC,White Blood Cell Count,HEMATOLOGY,6.55,10^9/L,4.5,11,6.55,6.55,10^9/L,4.5,11,NORMAL,,WEEK 16,8,7/15/2025,112
STUDY001,LB,STUDY001-SUBJ0007,74,L00074,PLT,Platelet Count,HEMATOLOGY,333.32,10^9/L,150,450,333.32,333.32,10^9/L,150,450,NORMAL,,WEEK 16,8,7/15/2025,112
STUDY001,LB,STUDY001-SUBJ0007,75,L00075,GLUC,Glucose,CHEMISTRY,93.8,mg/dL,70,100,93.8,93.8,mg/dL,70,100,NORMAL,,WEEK 16,8,7/15/2025,112
STUDY001,LB,STUDY001-SUBJ0007,76,L00076,BUN,Blood Urea Nitrogen,CHEMISTRY,13.52,mg/dL,7,20,13.52,13.52,mg/dL,7,20,NORMAL,,WEEK 16,8,7/15/2025,112
STUDY001,LB,STUDY001-SUBJ0007,77,L00077,CREAT,Creatinine,CHEMISTRY,0.69,mg/dL,0.6,1.2,0.69,0.69,mg/dL,0.6,1.2,NORMAL,,WEEK 16,8,7/15/2025,112
STUDY001,LB,STUDY001-SUBJ0007,78,L00078,BILI,Total Bilirubin,CHEMISTRY,1.04,mg/dL,0.1,1.2,1.04,1.04,mg/dL,0.1,1.2,NORMAL,,WEEK 16,8,7/15/2025,112
STUDY001,LB,STUDY001-SUBJ0007,79,L00079,ALP,Alkaline Phosphatase,CHEMISTRY,82.82,U/L,44,147,82.82,82.82,U/L,44,147,NORMAL,,WEEK 16,8,7/15/2025,112
STUDY001,LB,STUDY001-SUBJ0007,80,L00080,ALT,Alanine Aminotransferase,CHEMISTRY,27.12,U/L,7,56,27.12,27.12,U/L,7,56,NORMAL,,WEEK 16,8,7/15/2025,112
STUDY001,LB,STUDY001-SUBJ0007,81,L00081,HGB,Hemoglobin,HEMATOLOGY,14.22,g/dL,13.5,17.5,14.22,14.22,g/dL,13.5,17.5,NORMAL,,END OF TREATMENT,9,8/12/2025,140
STUDY001,LB,STUDY001-SUBJ0007,82,L00082,HCT,Hematocrit,HEMATOLOGY,40.07,%,41,51,40.07,40.07,%,41,51,LOW,,END OF TREATMENT,9,8/12/2025,140
STUDY001,LB,STUDY001-SUBJ0007,83,L00083,WBC,White Blood Cell Count,HEMATOLOGY,6.54,10^9/L,4.5,11,6.54,6.54,10^9/L,4.5,11,NORMAL,,END OF TREATMENT,9,8/12/2025,140
STUDY001,LB,STUDY001-SUBJ0007,84,L00084,PLT,Platelet Count,HEMATOLOGY,333.71,10^9/L,150,450,333.71,333.71,10^9/L,150,450,NORMAL,,END OF TREATMENT,9,8/12/2025,140
STUDY001,LB,STUDY001-SUBJ0007,85,L00085,GLUC,Glucose,CHEMISTRY,94.52,mg/dL,70,100,94.52,94.52,mg/dL,70,100,NORMAL,,END OF TREATMENT,9,8/12/2025,140
STUDY001,LB,STUDY001-SUBJ0007,86,L00086,BUN,Blood Urea Nitrogen,CHEMISTRY,14.32,mg/dL,7,20,14.32,14.32,mg/dL,7,20,NORMAL,,END OF TREATMENT,9,8/12/2025,140
STUDY001,LB,STUDY001-SUBJ0007,87,L00087,CREAT,Creatinine,CHEMISTRY,0.7,mg/dL,0.6,1.2,0.7,0.7,mg/dL,0.6,1.2,NORMAL,,END OF TREATMENT,9,8/12/2025,140
STUDY001,LB,STUDY001-SUBJ0007,88,L00088,BILI,Total Bilirubin,CHEMISTRY,1.08,mg/dL,0.1,1.2,1.08,1.08,mg/dL,0.1,1.2,NORMAL,,END OF TREATMENT,9,8/12/2025,140
STUDY001,LB,STUDY001-SUBJ0007,89,L00089,ALP,Alkaline Phosphatase,CHEMISTRY,82.26,U/L,44,147,82.26,82.26,U/L,44,147,NORMAL,,END OF TREATMENT,9,8/12/2025,140
STUDY001,LB,STUDY001-SUBJ0007,90,L00090,ALT,Alanine Aminotransferase,CHEMISTRY,27.08,U/L,7,56,27.08,27.08,U/L,7,56,NORMAL,,END OF TREATMENT,9,8/12/2025,140
STUDY001,LB,STUDY001-SUBJ0008,1,L00001,HGB,Hemoglobin,HEMATOLOGY,14.65,g/dL,13.5,17.5,14.65,14.65,g/dL,13.5,17.5,NORMAL,,SCREENING,1,5/29/2025,-14
STUDY001,LB,STUDY001-SUBJ0008,2,L00002,HCT,Hematocrit,HEMATOLOGY,46.37,%,41,51,46.37,46.37,%,41,51,NORMAL,,SCREENING,1,5/29/2025,-14
STUDY001,LB,STUDY001-SUBJ0008,3,L00003,WBC,White Blood Cell Count,HEMATOLOGY,7.48,10^9/L,4.5,11,7.48,7.48,10^9/L,4.5,11,NORMAL,,SCREENING,1,5/29/2025,-14
STUDY001,LB,STUDY001-SUBJ0008,4,L00004,PLT,Platelet Count,HEMATOLOGY,384.52,10^9/L,150,450,384.52,384.52,10^9/L,150,450,NORMAL,,SCREENING,1,5/29/2025,-14
STUDY001,LB,STUDY001-SUBJ0008,5,L00005,GLUC,Glucose,CHEMISTRY,83.07,mg/dL,70,100,83.07,83.07,mg/dL,70,100,NORMAL,,SCREENING,1,5/29/2025,-14
STUDY001,LB,STUDY001-SUBJ0008,6,L00006,BUN,Blood Urea Nitrogen,CHEMISTRY,9.51,mg/dL,7,20,9.51,9.51,mg/dL,7,20,NORMAL,,SCREENING,1,5/29/2025,-14
STUDY001,LB,STUDY001-SUBJ0008,7,L00007,CREAT,Creatinine,CHEMISTRY,1.09,mg/dL,0.6,1.2,1.09,1.09,mg/dL,0.6,1.2,NORMAL,,SCREENING,1,5/29/2025,-14
STUDY001,LB,STUDY001-SUBJ0008,8,L00008,BILI,Total Bilirubin,CHEMISTRY,0.93,mg/dL,0.1,1.2,0.93,0.93,mg/dL,0.1,1.2,NORMAL,,SCREENING,1,5/29/2025,-14
STUDY001,LB,STUDY001-SUBJ0008,9,L00009,ALP,Alkaline Phosphatase,CHEMISTRY,56.94,U/L,44,147,56.94,56.94,U/L,44,147,NORMAL,,SCREENING,1,5/29/2025,-14
STUDY001,LB,STUDY001-SUBJ0008,10,L00010,ALT,Alanine Aminotransferase,CHEMISTRY,27.98,U/L,7,56,27.98,27.98,U/L,7,56,NORMAL,,SCREENING,1,5/29/2025,-14
STUDY001,LB,STUDY001-SUBJ0008,11,L00011,HGB,Hemoglobin,HEMATOLOGY,14.68,g/dL,13.5,17.5,14.68,14.68,g/dL,13.5,17.5,NORMAL,Y,BASELINE,2,6/12/2025,1
STUDY001,LB,STUDY001-SUBJ0008,12,L00012,HCT,Hematocrit,HEMATOLOGY,46.99,%,41,51,46.99,46.99,%,41,51,NORMAL,Y,BASELINE,2,6/12/2025,1
STUDY001,LB,STUDY001-SUBJ0008,13,L00013,WBC,White Blood Cell Count,HEMATOLOGY,7.53,10^9/L,4.5,11,7.53,7.53,10^9/L,4.5,11,NORMAL,Y,BASELINE,2,6/12/2025,1
STUDY001,LB,STUDY001-SUBJ0008,14,L00014,PLT,Platelet Count,HEMATOLOGY,370.03,10^9/L,150,450,370.03,370.03,10^9/L,150,450,NORMAL,Y,BASELINE,2,6/12/2025,1
STUDY001,LB,STUDY001-SUBJ0008,15,L00015,GLUC,Glucose,CHEMISTRY,82.27,mg/dL,70,100,82.27,82.27,mg/dL,70,100,NORMAL,Y,BASELINE,2,6/12/2025,1
STUDY001,LB,STUDY001-SUBJ0008,16,L00016,BUN,Blood Urea Nitrogen,CHEMISTRY,9.75,mg/dL,7,20,9.75,9.75,mg/dL,7,20,NORMAL,Y,BASELINE,2,6/12/2025,1
STUDY001,LB,STUDY001-SUBJ0008,17,L00017,CREAT,Creatinine,CHEMISTRY,1.09,mg/dL,0.6,1.2,1.09,1.09,mg/dL,0.6,1.2,NORMAL,Y,BASELINE,2,6/12/2025,1
STUDY001,LB,STUDY001-SUBJ0008,18,L00018,BILI,Total Bilirubin,CHEMISTRY,0.95,mg/dL,0.1,1.2,0.95,0.95,mg/dL,0.1,1.2,NORMAL,Y,BASELINE,2,6/12/2025,1
STUDY001,LB,STUDY001-SUBJ0008,19,L00019,ALP,Alkaline Phosphatase,CHEMISTRY,53.75,U/L,44,147,53.75,53.75,U/L,44,147,NORMAL,Y,BASELINE,2,6/12/2025,1
STUDY001,LB,STUDY001-SUBJ0008,20,L00020,ALT,Alanine Aminotransferase,CHEMISTRY,27.77,U/L,7,56,27.77,27.77,U/L,7,56,NORMAL,Y,BASELINE,2,6/12/2025,1
STUDY001,LB,STUDY001-SUBJ0008,21,L00021,HGB,Hemoglobin,HEMATOLOGY,14.62,g/dL,13.5,17.5,14.62,14.62,g/dL,13.5,17.5,NORMAL,,WEEK 1,3,6/18/2025,7
STUDY001,LB,STUDY001-SUBJ0008,22,L00022,HCT,Hematocrit,HEMATOLOGY,46.91,%,41,51,46.91,46.91,%,41,51,NORMAL,,WEEK 1,3,6/18/2025,7
STUDY001,LB,STUDY001-SUBJ0008,23,L00023,WBC,White Blood Cell Count,HEMATOLOGY,7.4,10^9/L,4.5,11,7.4,7.4,10^9/L,4.5,11,NORMAL,,WEEK 1,3,6/18/2025,7
STUDY001,LB,STUDY001-SUBJ0008,24,L00024,PLT,Platelet Count,HEMATOLOGY,373.43,10^9/L,150,450,373.43,373.43,10^9/L,150,450,NORMAL,,WEEK 1,3,6/18/2025,7
STUDY001,LB,STUDY001-SUBJ0008,25,L00025,GLUC,Glucose,CHEMISTRY,80.77,mg/dL,70,100,80.77,80.77,mg/dL,70,100,NORMAL,,WEEK 1,3,6/18/2025,7
STUDY001,LB,STUDY001-SUBJ0008,26,L00026,BUN,Blood Urea Nitrogen,CHEMISTRY,9.8,mg/dL,7,20,9.8,9.8,mg/dL,7,20,NORMAL,,WEEK 1,3,6/18/2025,7
STUDY001,LB,STUDY001-SUBJ0008,27,L00027,CREAT,Creatinine,CHEMISTRY,1.08,mg/dL,0.6,1.2,1.08,1.08,mg/dL,0.6,1.2,NORMAL,,WEEK 1,3,6/18/2025,7
STUDY001,LB,STUDY001-SUBJ0008,28,L00028,BILI,Total Bilirubin,CHEMISTRY,0.95,mg/dL,0.1,1.2,0.95,0.95,mg/dL,0.1,1.2,NORMAL,,WEEK 1,3,6/18/2025,7
STUDY001,LB,STUDY001-SUBJ0008,29,L00029,ALP,Alkaline Phosphatase,CHEMISTRY,53.14,U/L,44,147,53.14,53.14,U/L,44,147,NORMAL,,WEEK 1,3,6/18/2025,7
STUDY001,LB,STUDY001-SUBJ0008,30,L00030,ALT,Alanine Aminotransferase,CHEMISTRY,25.68,U/L,7,56,25.68,25.68,U/L,7,56,NORMAL,,WEEK 1,3,6/18/2025,7
STUDY001,LB,STUDY001-SUBJ0008,31,L00031,HGB,Hemoglobin,HEMATOLOGY,14.6,g/dL,13.5,17.5,14.6,14.6,g/dL,13.5,17.5,NORMAL,,WEEK 2,4,6/25/2025,14
STUDY001,LB,STUDY001-SUBJ0008,32,L00032,HCT,Hematocrit,HEMATOLOGY,46.68,%,41,51,46.68,46.68,%,41,51,NORMAL,,WEEK 2,4,6/25/2025,14
STUDY001,LB,STUDY001-SUBJ0008,33,L00033,WBC,White Blood Cell Count,HEMATOLOGY,7.43,10^9/L,4.5,11,7.43,7.43,10^9/L,4.5,11,NORMAL,,WEEK 2,4,6/25/2025,14
STUDY001,LB,STUDY001-SUBJ0008,34,L00034,PLT,Platelet Count,HEMATOLOGY,370.92,10^9/L,150,450,370.92,370.92,10^9/L,150,450,NORMAL,,WEEK 2,4,6/25/2025,14
STUDY001,LB,STUDY001-SUBJ0008,35,L00035,GLUC,Glucose,CHEMISTRY,79.92,mg/dL,70,100,79.92,79.92,mg/dL,70,100,NORMAL,,WEEK 2,4,6/25/2025,14
STUDY001,LB,STUDY001-SUBJ0008,36,L00036,BUN,Blood Urea Nitrogen,CHEMISTRY,9.92,mg/dL,7,20,9.92,9.92,mg/dL,7,20,NORMAL,,WEEK 2,4,6/25/2025,14
STUDY001,LB,STUDY001-SUBJ0008,37,L00037,CREAT,Creatinine,CHEMISTRY,1.09,mg/dL,0.6,1.2,1.09,1.09,mg/dL,0.6,1.2,NORMAL,,WEEK 2,4,6/25/2025,14
STUDY001,LB,STUDY001-SUBJ0008,38,L00038,BILI,Total Bilirubin,CHEMISTRY,0.93,mg/dL,0.1,1.2,0.93,0.93,mg/dL,0.1,1.2,NORMAL,,WEEK 2,4,6/25/2025,14
STUDY001,LB,STUDY001-SUBJ0008,39,L00039,ALP,Alkaline Phosphatase,CHEMISTRY,50.65,U/L,44,147,50.65,50.65,U/L,44,147,NORMAL,,WEEK 2,4,6/25/2025,14
STUDY001,LB,STUDY001-SUBJ0008,40,L00040,ALT,Alanine Aminotransferase,CHEMISTRY,26.79,U/L,7,56,26.79,26.79,U/L,7,56,NORMAL,,WEEK 2,4,6/25/2025,14
STUDY001,LB,STUDY001-SUBJ0008,41,L00041,HGB,Hemoglobin,HEMATOLOGY,14.6,g/dL,13.5,17.5,14.6,14.6,g/dL,13.5,17.5,NORMAL,,WEEK 4,5,7/9/2025,28
STUDY001,LB,STUDY001-SUBJ0008,42,L00042,HCT,Hematocrit,HEMATOLOGY,46.54,%,41,51,46.54,46.54,%,41,51,NORMAL,,WEEK 4,5,7/9/2025,28
STUDY001,LB,STUDY001-SUBJ0008,43,L00043,WBC,White Blood Cell Count,HEMATOLOGY,7.42,10^9/L,4.5,11,7.42,7.42,10^9/L,4.5,11,NORMAL,,WEEK 4,5,7/9/2025,28
STUDY001,LB,STUDY001-SUBJ0008,44,L00044,PLT,Platelet Count,HEMATOLOGY,369.57,10^9/L,150,450,369.57,369.57,10^9/L,150,450,NORMAL,,WEEK 4,5,7/9/2025,28
STUDY001,LB,STUDY001-SUBJ0008,45,L00045,GLUC,Glucose,CHEMISTRY,81.17,mg/dL,70,100,81.17,81.17,mg/dL,70,100,NORMAL,,WEEK 4,5,7/9/2025,28
STUDY001,LB,STUDY001-SUBJ0008,46,L00046,BUN,Blood Urea Nitrogen,CHEMISTRY,9.68,mg/dL,7,20,9.68,9.68,mg/dL,7,20,NORMAL,,WEEK 4,5,7/9/2025,28
STUDY001,LB,STUDY001-SUBJ0008,47,L00047,CREAT,Creatinine,CHEMISTRY,1.1,mg/dL,0.6,1.2,1.1,1.1,mg/dL,0.6,1.2,NORMAL,,WEEK 4,5,7/9/2025,28
STUDY001,LB,STUDY001-SUBJ0008,48,L00048,BILI,Total Bilirubin,CHEMISTRY,0.97,mg/dL,0.1,1.2,0.97,0.97,mg/dL,0.1,1.2,NORMAL,,WEEK 4,5,7/9/2025,28
STUDY001,LB,STUDY001-SUBJ0008,49,L00049,ALP,Alkaline Phosphatase,CHEMISTRY,56.17,U/L,44,147,56.17,56.17,U/L,44,147,NORMAL,,WEEK 4,5,7/9/2025,28
STUDY001,LB,STUDY001-SUBJ0008,50,L00050,ALT,Alanine Aminotransferase,CHEMISTRY,27.2,U/L,7,56,27.2,27.2,U/L,7,56,NORMAL,,WEEK 4,5,7/9/2025,28
STUDY001,LB,STUDY001-SUBJ0008,51,L00051,HGB,Hemoglobin,HEMATOLOGY,14.8,g/dL,13.5,17.5,14.8,14.8,g/dL,13.5,17.5,NORMAL,,WEEK 8,6,8/6/2025,56
STUDY001,LB,STUDY001-SUBJ0008,52,L00052,HCT,Hematocrit,HEMATOLOGY,46.9,%,41,51,46.9,46.9,%,41,51,NORMAL,,WEEK 8,6,8/6/2025,56
STUDY001,LB,STUDY001-SUBJ0008,53,L00053,WBC,White Blood Cell Count,HEMATOLOGY,7.6,10^9/L,4.5,11,7.6,7.6,10^9/L,4.5,11,NORMAL,,WEEK 8,6,8/6/2025,56
STUDY001,LB,STUDY001-SUBJ0008,54,L00054,PLT,Platelet Count,HEMATOLOGY,373.9,10^9/L,150,450,373.9,373.9,10^9/L,150,450,NORMAL,,WEEK 8,6,8/6/2025,56
STUDY001,LB,STUDY001-SUBJ0008,55,L00055,GLUC,Glucose,CHEMISTRY,81.32,mg/dL,70,100,81.32,81.32,mg/dL,70,100,NORMAL,,WEEK 8,6,8/6/2025,56
STUDY001,LB,STUDY001-SUBJ0008,56,L00056,BUN,Blood Urea Nitrogen,CHEMISTRY,9.86,mg/dL,7,20,9.86,9.86,mg/dL,7,20,NORMAL,,WEEK 8,6,8/6/2025,56
STUDY001,LB,STUDY001-SUBJ0008,57,L00057,CREAT,Creatinine,CHEMISTRY,1.08,mg/dL,0.6,1.2,1.08,1.08,mg/dL,0.6,1.2,NORMAL,,WEEK 8,6,8/6/2025,56
STUDY001,LB,STUDY001-SUBJ0008,58,L00058,BILI,Total Bilirubin,CHEMISTRY,0.96,mg/dL,0.1,1.2,0.96,0.96,mg/dL,0.1,1.2,NORMAL,,WEEK 8,6,8/6/2025,56
STUDY001,LB,STUDY001-SUBJ0008,59,L00059,ALP,Alkaline Phosphatase,CHEMISTRY,52.78,U/L,44,147,52.78,52.78,U/L,44,147,NORMAL,,WEEK 8,6,8/6/2025,56
STUDY001,LB,STUDY001-SUBJ0008,60,L00060,ALT,Alanine Aminotransferase,CHEMISTRY,26.68,U/L,7,56,26.68,26.68,U/L,7,56,NORMAL,,WEEK 8,6,8/6/2025,56
STUDY001,LB,STUDY001-SUBJ0008,61,L00061,HGB,Hemoglobin,HEMATOLOGY,14.76,g/dL,13.5,17.5,14.76,14.76,g/dL,13.5,17.5,NORMAL,,WEEK 12,7,9/3/2025,84
STUDY001,LB,STUDY001-SUBJ0008,62,L00062,HCT,Hematocrit,HEMATOLOGY,45.78,%,41,51,45.78,45.78,%,41,51,NORMAL,,WEEK 12,7,9/3/2025,84
STUDY001,LB,STUDY001-SUBJ0008,63,L00063,WBC,White Blood Cell Count,HEMATOLOGY,7.22,10^9/L,4.5,11,7.22,7.22,10^9/L,4.5,11,NORMAL,,WEEK 12,7,9/3/2025,84
STUDY001,LB,STUDY001-SUBJ0008,64,L00064,PLT,Platelet Count,HEMATOLOGY,382.47,10^9/L,150,450,382.47,382.47,10^9/L,150,450,NORMAL,,WEEK 12,7,9/3/2025,84
STUDY001,LB,STUDY001-SUBJ0008,65,L00065,GLUC,Glucose,CHEMISTRY,81.43,mg/dL,70,100,81.43,81.43,mg/dL,70,100,NORMAL,,WEEK 12,7,9/3/2025,84
STUDY001,LB,STUDY001-SUBJ0008,66,L00066,BUN,Blood Urea Nitrogen,CHEMISTRY,9.21,mg/dL,7,20,9.21,9.21,mg/dL,7,20,NORMAL,,WEEK 12,7,9/3/2025,84
STUDY001,LB,STUDY001-SUBJ0008,67,L00067,CREAT,Creatinine,CHEMISTRY,1.09,mg/dL,0.6,1.2,1.09,1.09,mg/dL,0.6,1.2,NORMAL,,WEEK 12,7,9/3/2025,84
STUDY001,LB,STUDY001-SUBJ0008,68,L00068,BILI,Total Bilirubin,CHEMISTRY,0.94,mg/dL,0.1,1.2,0.94,0.94,mg/dL,0.1,1.2,NORMAL,,WEEK 12,7,9/3/2025,84
STUDY001,LB,STUDY001-SUBJ0008,69,L00069,ALP,Alkaline Phosphatase,CHEMISTRY,52.15,U/L,44,147,52.15,52.15,U/L,44,147,NORMAL,,WEEK 12,7,9/3/2025,84
STUDY001,LB,STUDY001-SUBJ0008,70,L00070,ALT,Alanine Aminotransferase,CHEMISTRY,27.37,U/L,7,56,27.37,27.37,U/L,7,56,NORMAL,,WEEK 12,7,9/3/2025,84
STUDY001,LB,STUDY001-SUBJ0008,71,L00071,HGB,Hemoglobin,HEMATOLOGY,14.61,g/dL,13.5,17.5,14.61,14.61,g/dL,13.5,17.5,NORMAL,,WEEK 16,8,10/1/2025,112
STUDY001,LB,STUDY001-SUBJ0008,72,L00072,HCT,Hematocrit,HEMATOLOGY,46.76,%,41,51,46.76,46.76,%,41,51,NORMAL,,WEEK 16,8,10/1/2025,112
STUDY001,LB,STUDY001-SUBJ0008,73,L00073,WBC,White Blood Cell Count,HEMATOLOGY,7.34,10^9/L,4.5,11,7.34,7.34,10^9/L,4.5,11,NORMAL,,WEEK 16,8,10/1/2025,112
STUDY001,LB,STUDY001-SUBJ0008,74,L00074,PLT,Platelet Count,HEMATOLOGY,379.85,10^9/L,150,450,379.85,379.85,10^9/L,150,450,NORMAL,,WEEK 16,8,10/1/2025,112
STUDY001,LB,STUDY001-SUBJ0008,75,L00075,GLUC,Glucose,CHEMISTRY,81.28,mg/dL,70,100,81.28,81.28,mg/dL,70,100,NORMAL,,WEEK 16,8,10/1/2025,112
STUDY001,LB,STUDY001-SUBJ0008,76,L00076,BUN,Blood Urea Nitrogen,CHEMISTRY,9.75,mg/dL,7,20,9.75,9.75,mg/dL,7,20,NORMAL,,WEEK 16,8,10/1/2025,112
STUDY001,LB,STUDY001-SUBJ0008,77,L00077,CREAT,Creatinine,CHEMISTRY,1.06,mg/dL,0.6,1.2,1.06,1.06,mg/dL,0.6,1.2,NORMAL,,WEEK 16,8,10/1/2025,112
STUDY001,LB,STUDY001-SUBJ0008,78,L00078,BILI,Total Bilirubin,CHEMISTRY,0.93,mg/dL,0.1,1.2,0.93,0.93,mg/dL,0.1,1.2,NORMAL,,WEEK 16,8,10/1/2025,112
STUDY001,LB,STUDY001-SUBJ0008,79,L00079,ALP,Alkaline Phosphatase,CHEMISTRY,52.38,U/L,44,147,52.38,52.38,U/L,44,147,NORMAL,,WEEK 16,8,10/1/2025,112
STUDY001,LB,STUDY001-SUBJ0008,80,L00080,ALT,Alanine Aminotransferase,CHEMISTRY,27.42,U/L,7,56,27.42,27.42,U/L,7,56,NORMAL,,WEEK 16,8,10/1/2025,112
STUDY001,LB,STUDY001-SUBJ0008,81,L00081,HGB,Hemoglobin,HEMATOLOGY,14.66,g/dL,13.5,17.5,14.66,14.66,g/dL,13.5,17.5,NORMAL,,END OF TREATMENT,9,10/29/2025,140
STUDY001,LB,STUDY001-SUBJ0008,82,L00082,HCT,Hematocrit,HEMATOLOGY,46.51,%,41,51,46.51,46.51,%,41,51,NORMAL,,END OF TREATMENT,9,10/29/2025,140
STUDY001,LB,STUDY001-SUBJ0008,83,L00083,WBC,White Blood Cell Count,HEMATOLOGY,7.36,10^9/L,4.5,11,7.36,7.36,10^9/L,4.5,11,NORMAL,,END OF TREATMENT,9,10/29/2025,140
STUDY001,LB,STUDY001-SUBJ0008,84,L00084,PLT,Platelet Count,HEMATOLOGY,377.77,10^9/L,150,450,377.77,377.77,10^9/L,150,450,NORMAL,,END OF TREATMENT,9,10/29/2025,140
STUDY001,LB,STUDY001-SUBJ0008,85,L00085,GLUC,Glucose,CHEMISTRY,80.31,mg/dL,70,100,80.31,80.31,mg/dL,70,100,NORMAL,,END OF TREATMENT,9,10/29/2025,140
STUDY001,LB,STUDY001-SUBJ0008,86,L00086,BUN,Blood Urea Nitrogen,CHEMISTRY,9.86,mg/dL,7,20,9.86,9.86,mg/dL,7,20,NORMAL,,END OF TREATMENT,9,10/29/2025,140
STUDY001,LB,STUDY001-SUBJ0008,87,L00087,CREAT,Creatinine,CHEMISTRY,1.08,mg/dL,0.6,1.2,1.08,1.08,mg/dL,0.6,1.2,NORMAL,,END OF TREATMENT,9,10/29/2025,140
STUDY001,LB,STUDY001-SUBJ0008,88,L00088,BILI,Total Bilirubin,CHEMISTRY,0.94,mg/dL,0.1,1.2,0.94,0.94,mg/dL,0.1,1.2,NORMAL,,END OF TREATMENT,9,10/29/2025,140
STUDY001,LB,STUDY001-SUBJ0008,89,L00089,ALP,Alkaline Phosphatase,CHEMISTRY,57.85,U/L,44,147,57.85,57.85,U/L,44,147,NORMAL,,END OF TREATMENT,9,10/29/2025,140
STUDY001,LB,STUDY001-SUBJ0008,90,L00090,ALT,Alanine Aminotransferase,CHEMISTRY,27.45,U/L,7,56,27.45,27.45,U/L,7,56,NORMAL,,END OF TREATMENT,9,10/29/2025,140
STUDY001,LB,STUDY001-SUBJ0009,1,L00001,HGB,Hemoglobin,HEMATOLOGY,17.03,g/dL,13.5,17.5,17.03,17.03,g/dL,13.5,17.5,NORMAL,,SCREENING,1,7/1/2025,-14
STUDY001,LB,STUDY001-SUBJ0009,2,L00002,HCT,Hematocrit,HEMATOLOGY,45.35,%,41,51,45.35,45.35,%,41,51,NORMAL,,SCREENING,1,7/1/2025,-14
STUDY001,LB,STUDY001-SUBJ0009,3,L00003,WBC,White Blood Cell Count,HEMATOLOGY,3.89,10^9/L,4.5,11,3.89,3.89,10^9/L,4.5,11,LOW,,SCREENING,1,7/1/2025,-14
STUDY001,LB,STUDY001-SUBJ0009,4,L00004,PLT,Platelet Count,HEMATOLOGY,313.27,10^9/L,150,450,313.27,313.27,10^9/L,150,450,NORMAL,,SCREENING,1,7/1/2025,-14
STUDY001,LB,STUDY001-SUBJ0009,5,L00005,GLUC,Glucose,CHEMISTRY,91.44,mg/dL,70,100,91.44,91.44,mg/dL,70,100,NORMAL,,SCREENING,1,7/1/2025,-14
STUDY001,LB,STUDY001-SUBJ0009,6,L00006,BUN,Blood Urea Nitrogen,CHEMISTRY,11.81,mg/dL,7,20,11.81,11.81,mg/dL,7,20,NORMAL,,SCREENING,1,7/1/2025,-14
STUDY001,LB,STUDY001-SUBJ0009,7,L00007,CREAT,Creatinine,CHEMISTRY,0.73,mg/dL,0.6,1.2,0.73,0.73,mg/dL,0.6,1.2,NORMAL,,SCREENING,1,7/1/2025,-14
STUDY001,LB,STUDY001-SUBJ0009,8,L00008,BILI,Total Bilirubin,CHEMISTRY,0.79,mg/dL,0.1,1.2,0.79,0.79,mg/dL,0.1,1.2,NORMAL,,SCREENING,1,7/1/2025,-14
STUDY001,LB,STUDY001-SUBJ0009,9,L00009,ALP,Alkaline Phosphatase,CHEMISTRY,88.16,U/L,44,147,88.16,88.16,U/L,44,147,NORMAL,,SCREENING,1,7/1/2025,-14
STUDY001,LB,STUDY001-SUBJ0009,10,L00010,ALT,Alanine Aminotransferase,CHEMISTRY,35.72,U/L,7,56,35.72,35.72,U/L,7,56,NORMAL,,SCREENING,1,7/1/2025,-14
STUDY001,LB,STUDY001-SUBJ0009,11,L00011,HGB,Hemoglobin,HEMATOLOGY,16.92,g/dL,13.5,17.5,16.92,16.92,g/dL,13.5,17.5,NORMAL,Y,BASELINE,2,7/15/2025,1
STUDY001,LB,STUDY001-SUBJ0009,12,L00012,HCT,Hematocrit,HEMATOLOGY,45.04,%,41,51,45.04,45.04,%,41,51,NORMAL,Y,BASELINE,2,7/15/2025,1
STUDY001,LB,STUDY001-SUBJ0009,13,L00013,WBC,White Blood Cell Count,HEMATOLOGY,3.95,10^9/L,4.5,11,3.95,3.95,10^9/L,4.5,11,LOW,Y,BASELINE,2,7/15/2025,1
STUDY001,LB,STUDY001-SUBJ0009,14,L00014,PLT,Platelet Count,HEMATOLOGY,316.26,10^9/L,150,450,316.26,316.26,10^9/L,150,450,NORMAL,Y,BASELINE,2,7/15/2025,1
STUDY001,LB,STUDY001-SUBJ0009,15,L00015,GLUC,Glucose,CHEMISTRY,89.41,mg/dL,70,100,89.41,89.41,mg/dL,70,100,NORMAL,Y,BASELINE,2,7/15/2025,1
STUDY001,LB,STUDY001-SUBJ0009,16,L00016,BUN,Blood Urea Nitrogen,CHEMISTRY,11.73,mg/dL,7,20,11.73,11.73,mg/dL,7,20,NORMAL,Y,BASELINE,2,7/15/2025,1
STUDY001,LB,STUDY001-SUBJ0009,17,L00017,CREAT,Creatinine,CHEMISTRY,0.73,mg/dL,0.6,1.2,0.73,0.73,mg/dL,0.6,1.2,NORMAL,Y,BASELINE,2,7/15/2025,1
STUDY001,LB,STUDY001-SUBJ0009,18,L00018,BILI,Total Bilirubin,CHEMISTRY,0.81,mg/dL,0.1,1.2,0.81,0.81,mg/dL,0.1,1.2,NORMAL,Y,BASELINE,2,7/15/2025,1
STUDY001,LB,STUDY001-SUBJ0009,19,L00019,ALP,Alkaline Phosphatase,CHEMISTRY,88.83,U/L,44,147,88.83,88.83,U/L,44,147,NORMAL,Y,BASELINE,2,7/15/2025,1
STUDY001,LB,STUDY001-SUBJ0009,20,L00020,ALT,Alanine Aminotransferase,CHEMISTRY,35.02,U/L,7,56,35.02,35.02,U/L,7,56,NORMAL,Y,BASELINE,2,7/15/2025,1
STUDY001,LB,STUDY001-SUBJ0009,21,L00021,HGB,Hemoglobin,HEMATOLOGY,16.91,g/dL,13.5,17.5,16.91,16.91,g/dL,13.5,17.5,NORMAL,,WEEK 1,3,7/21/2025,7
STUDY001,LB,STUDY001-SUBJ0009,22,L00022,HCT,Hematocrit,HEMATOLOGY,44.98,%,41,51,44.98,44.98,%,41,51,NORMAL,,WEEK 1,3,7/21/2025,7
STUDY001,LB,STUDY001-SUBJ0009,23,L00023,WBC,White Blood Cell Count,HEMATOLOGY,3.87,10^9/L,4.5,11,3.87,3.87,10^9/L,4.5,11,LOW,,WEEK 1,3,7/21/2025,7
STUDY001,LB,STUDY001-SUBJ0009,24,L00024,PLT,Platelet Count,HEMATOLOGY,322.08,10^9/L,150,450,322.08,322.08,10^9/L,150,450,NORMAL,,WEEK 1,3,7/21/2025,7
STUDY001,LB,STUDY001-SUBJ0009,25,L00025,GLUC,Glucose,CHEMISTRY,90,mg/dL,70,100,90,90,mg/dL,70,100,NORMAL,,WEEK 1,3,7/21/2025,7
STUDY001,LB,STUDY001-SUBJ0009,26,L00026,BUN,Blood Urea Nitrogen,CHEMISTRY,11.5,mg/dL,7,20,11.5,11.5,mg/dL,7,20,NORMAL,,WEEK 1,3,7/21/2025,7
STUDY001,LB,STUDY001-SUBJ0009,27,L00027,CREAT,Creatinine,CHEMISTRY,0.72,mg/dL,0.6,1.2,0.72,0.72,mg/dL,0.6,1.2,NORMAL,,WEEK 1,3,7/21/2025,7
STUDY001,LB,STUDY001-SUBJ0009,28,L00028,BILI,Total Bilirubin,CHEMISTRY,0.78,mg/dL,0.1,1.2,0.78,0.78,mg/dL,0.1,1.2,NORMAL,,WEEK 1,3,7/21/2025,7
STUDY001,LB,STUDY001-SUBJ0009,29,L00029,ALP,Alkaline Phosphatase,CHEMISTRY,88.38,U/L,44,147,88.38,88.38,U/L,44,147,NORMAL,,WEEK 1,3,7/21/2025,7
STUDY001,LB,STUDY001-SUBJ0009,30,L00030,ALT,Alanine Aminotransferase,CHEMISTRY,35.55,U/L,7,56,35.55,35.55,U/L,7,56,NORMAL,,WEEK 1,3,7/21/2025,7
STUDY001,LB,STUDY001-SUBJ0009,31,L00031,HGB,Hemoglobin,HEMATOLOGY,17,g/dL,13.5,17.5,17,17,g/dL,13.5,17.5,NORMAL,,WEEK 2,4,7/28/2025,14
STUDY001,LB,STUDY001-SUBJ0009,32,L00032,HCT,Hematocrit,HEMATOLOGY,45.41,%,41,51,45.41,45.41,%,41,51,NORMAL,,WEEK 2,4,7/28/2025,14
STUDY001,LB,STUDY001-SUBJ0009,33,L00033,WBC,White Blood Cell Count,HEMATOLOGY,3.88,10^9/L,4.5,11,3.88,3.88,10^9/L,4.5,11,LOW,,WEEK 2,4,7/28/2025,14
STUDY001,LB,STUDY001-SUBJ0009,34,L00034,PLT,Platelet Count,HEMATOLOGY,317.6,10^9/L,150,450,317.6,317.6,10^9/L,150,450,NORMAL,,WEEK 2,4,7/28/2025,14
STUDY001,LB,STUDY001-SUBJ0009,35,L00035,GLUC,Glucose,CHEMISTRY,91.75,mg/dL,70,100,91.75,91.75,mg/dL,70,100,NORMAL,,WEEK 2,4,7/28/2025,14
STUDY001,LB,STUDY001-SUBJ0009,36,L00036,BUN,Blood Urea Nitrogen,CHEMISTRY,11.45,mg/dL,7,20,11.45,11.45,mg/dL,7,20,NORMAL,,WEEK 2,4,7/28/2025,14
STUDY001,LB,STUDY001-SUBJ0009,37,L00037,CREAT,Creatinine,CHEMISTRY,0.73,mg/dL,0.6,1.2,0.73,0.73,mg/dL,0.6,1.2,NORMAL,,WEEK 2,4,7/28/2025,14
STUDY001,LB,STUDY001-SUBJ0009,38,L00038,BILI,Total Bilirubin,CHEMISTRY,0.84,mg/dL,0.1,1.2,0.84,0.84,mg/dL,0.1,1.2,NORMAL,,WEEK 2,4,7/28/2025,14
STUDY001,LB,STUDY001-SUBJ0009,39,L00039,ALP,Alkaline Phosphatase,CHEMISTRY,89.66,U/L,44,147,89.66,89.66,U/L,44,147,NORMAL,,WEEK 2,4,7/28/2025,14
STUDY001,LB,STUDY001-SUBJ0009,40,L00040,ALT,Alanine Aminotransferase,CHEMISTRY,37.76,U/L,7,56,37.76,37.76,U/L,7,56,NORMAL,,WEEK 2,4,7/28/2025,14
STUDY001,LB,STUDY001-SUBJ0009,41,L00041,HGB,Hemoglobin,HEMATOLOGY,16.93,g/dL,13.5,17.5,16.93,16.93,g/dL,13.5,17.5,NORMAL,,WEEK 4,5,8/11/2025,28
STUDY001,LB,STUDY001-SUBJ0009,42,L00042,HCT,Hematocrit,HEMATOLOGY,45.18,%,41,51,45.18,45.18,%,41,51,NORMAL,,WEEK 4,5,8/11/2025,28
STUDY001,LB,STUDY001-SUBJ0009,43,L00043,WBC,White Blood Cell Count,HEMATOLOGY,3.69,10^9/L,4.5,11,3.69,3.69,10^9/L,4.5,11,LOW,,WEEK 4,5,8/11/2025,28
STUDY001,LB,STUDY001-SUBJ0009,44,L00044,PLT,Platelet Count,HEMATOLOGY,319.39,10^9/L,150,450,319.39,319.39,10^9/L,150,450,NORMAL,,WEEK 4,5,8/11/2025,28
STUDY001,LB,STUDY001-SUBJ0009,45,L00045,GLUC,Glucose,CHEMISTRY,89.44,mg/dL,70,100,89.44,89.44,mg/dL,70,100,NORMAL,,WEEK 4,5,8/11/2025,28
STUDY001,LB,STUDY001-SUBJ0009,46,L00046,BUN,Blood Urea Nitrogen,CHEMISTRY,11.79,mg/dL,7,20,11.79,11.79,mg/dL,7,20,NORMAL,,WEEK 4,5,8/11/2025,28
STUDY001,LB,STUDY001-SUBJ0009,47,L00047,CREAT,Creatinine,CHEMISTRY,0.73,mg/dL,0.6,1.2,0.73,0.73,mg/dL,0.6,1.2,NORMAL,,WEEK 4,5,8/11/2025,28
STUDY001,LB,STUDY001-SUBJ0009,48,L00048,BILI,Total Bilirubin,CHEMISTRY,0.79,mg/dL,0.1,1.2,0.79,0.79,mg/dL,0.1,1.2,NORMAL,,WEEK 4,5,8/11/2025,28
STUDY001,LB,STUDY001-SUBJ0009,49,L00049,ALP,Alkaline Phosphatase,CHEMISTRY,88.33,U/L,44,147,88.33,88.33,U/L,44,147,NORMAL,,WEEK 4,5,8/11/2025,28
STUDY001,LB,STUDY001-SUBJ0009,50,L00050,ALT,Alanine Aminotransferase,CHEMISTRY,34.64,U/L,7,56,34.64,34.64,U/L,7,56,NORMAL,,WEEK 4,5,8/11/2025,28
STUDY001,LB,STUDY001-SUBJ0009,51,L00051,HGB,Hemoglobin,HEMATOLOGY,16.95,g/dL,13.5,17.5,16.95,16.95,g/dL,13.5,17.5,NORMAL,,WEEK 8,6,9/8/2025,56
STUDY001,LB,STUDY001-SUBJ0009,52,L00052,HCT,Hematocrit,HEMATOLOGY,45.17,%,41,51,45.17,45.17,%,41,51,NORMAL,,WEEK 8,6,9/8/2025,56
STUDY001,LB,STUDY001-SUBJ0009,53,L00053,WBC,White Blood Cell Count,HEMATOLOGY,4.09,10^9/L,4.5,11,4.09,4.09,10^9/L,4.5,11,LOW,,WEEK 8,6,9/8/2025,56
STUDY001,LB,STUDY001-SUBJ0009,54,L00054,PLT,Platelet Count,HEMATOLOGY,316.16,10^9/L,150,450,316.16,316.16,10^9/L,150,450,NORMAL,,WEEK 8,6,9/8/2025,56
STUDY001,LB,STUDY001-SUBJ0009,55,L00055,GLUC,Glucose,CHEMISTRY,91.41,mg/dL,70,100,91.41,91.41,mg/dL,70,100,NORMAL,,WEEK 8,6,9/8/2025,56
STUDY001,LB,STUDY001-SUBJ0009,56,L00056,BUN,Blood Urea Nitrogen,CHEMISTRY,11.15,mg/dL,7,20,11.15,11.15,mg/dL,7,20,NORMAL,,WEEK 8,6,9/8/2025,56
STUDY001,LB,STUDY001-SUBJ0009,57,L00057,CREAT,Creatinine,CHEMISTRY,0.72,mg/dL,0.6,1.2,0.72,0.72,mg/dL,0.6,1.2,NORMAL,,WEEK 8,6,9/8/2025,56
STUDY001,LB,STUDY001-SUBJ0009,58,L00058,BILI,Total Bilirubin,CHEMISTRY,0.82,mg/dL,0.1,1.2,0.82,0.82,mg/dL,0.1,1.2,NORMAL,,WEEK 8,6,9/8/2025,56
STUDY001,LB,STUDY001-SUBJ0009,59,L00059,ALP,Alkaline Phosphatase,CHEMISTRY,90.62,U/L,44,147,90.62,90.62,U/L,44,147,NORMAL,,WEEK 8,6,9/8/2025,56
STUDY001,LB,STUDY001-SUBJ0009,60,L00060,ALT,Alanine Aminotransferase,CHEMISTRY,36.4,U/L,7,56,36.4,36.4,U/L,7,56,NORMAL,,WEEK 8,6,9/8/2025,56
STUDY001,LB,STUDY001-SUBJ0009,61,L00061,HGB,Hemoglobin,HEMATOLOGY,16.95,g/dL,13.5,17.5,16.95,16.95,g/dL,13.5,17.5,NORMAL,,WEEK 12,7,10/6/2025,84
STUDY001,LB,STUDY001-SUBJ0009,62,L00062,HCT,Hematocrit,HEMATOLOGY,44.89,%,41,51,44.89,44.89,%,41,51,NORMAL,,WEEK 12,7,10/6/2025,84
STUDY001,LB,STUDY001-SUBJ0009,63,L00063,WBC,White Blood Cell Count,HEMATOLOGY,3.86,10^9/L,4.5,11,3.86,3.86,10^9/L,4.5,11,LOW,,WEEK 12,7,10/6/2025,84
STUDY001,LB,STUDY001-SUBJ0009,64,L00064,PLT,Platelet Count,HEMATOLOGY,323.98,10^9/L,150,450,323.98,323.98,10^9/L,150,450,NORMAL,,WEEK 12,7,10/6/2025,84
STUDY001,LB,STUDY001-SUBJ0009,65,L00065,GLUC,Glucose,CHEMISTRY,90.15,mg/dL,70,100,90.15,90.15,mg/dL,70,100,NORMAL,,WEEK 12,7,10/6/2025,84
STUDY001,LB,STUDY001-SUBJ0009,66,L00066,BUN,Blood Urea Nitrogen,CHEMISTRY,11.23,mg/dL,7,20,11.23,11.23,mg/dL,7,20,NORMAL,,WEEK 12,7,10/6/2025,84
STUDY001,LB,STUDY001-SUBJ0009,67,L00067,CREAT,Creatinine,CHEMISTRY,0.75,mg/dL,0.6,1.2,0.75,0.75,mg/dL,0.6,1.2,NORMAL,,WEEK 12,7,10/6/2025,84
STUDY001,LB,STUDY001-SUBJ0009,68,L00068,BILI,Total Bilirubin,CHEMISTRY,0.82,mg/dL,0.1,1.2,0.82,0.82,mg/dL,0.1,1.2,NORMAL,,WEEK 12,7,10/6/2025,84
STUDY001,LB,STUDY001-SUBJ0009,69,L00069,ALP,Alkaline Phosphatase,CHEMISTRY,88.16,U/L,44,147,88.16,88.16,U/L,44,147,NORMAL,,WEEK 12,7,10/6/2025,84
STUDY001,LB,STUDY001-SUBJ0009,70,L00070,ALT,Alanine Aminotransferase,CHEMISTRY,35.28,U/L,7,56,35.28,35.28,U/L,7,56,NORMAL,,WEEK 12,7,10/6/2025,84
STUDY001,LB,STUDY001-SUBJ0009,71,L00071,HGB,Hemoglobin,HEMATOLOGY,16.92,g/dL,13.5,17.5,16.92,16.92,g/dL,13.5,17.5,NORMAL,,WEEK 16,8,11/3/2025,112
STUDY001,LB,STUDY001-SUBJ0009,72,L00072,HCT,Hematocrit,HEMATOLOGY,45.29,%,41,51,45.29,45.29,%,41,51,NORMAL,,WEEK 16,8,11/3/2025,112
STUDY001,LB,STUDY001-SUBJ0009,73,L00073,WBC,White Blood Cell Count,HEMATOLOGY,3.91,10^9/L,4.5,11,3.91,3.91,10^9/L,4.5,11,LOW,,WEEK 16,8,11/3/2025,112
STUDY001,LB,STUDY001-SUBJ0009,74,L00074,PLT,Platelet Count,HEMATOLOGY,321.71,10^9/L,150,450,321.71,321.71,10^9/L,150,450,NORMAL,,WEEK 16,8,11/3/2025,112
STUDY001,LB,STUDY001-SUBJ0009,75,L00075,GLUC,Glucose,CHEMISTRY,89.35,mg/dL,70,100,89.35,89.35,mg/dL,70,100,NORMAL,,WEEK 16,8,11/3/2025,112
STUDY001,LB,STUDY001-SUBJ0009,76,L00076,BUN,Blood Urea Nitrogen,CHEMISTRY,11.82,mg/dL,7,20,11.82,11.82,mg/dL,7,20,NORMAL,,WEEK 16,8,11/3/2025,112
STUDY001,LB,STUDY001-SUBJ0009,77,L00077,CREAT,Creatinine,CHEMISTRY,0.71,mg/dL,0.6,1.2,0.71,0.71,mg/dL,0.6,1.2,NORMAL,,WEEK 16,8,11/3/2025,112
STUDY001,LB,STUDY001-SUBJ0009,78,L00078,BILI,Total Bilirubin,CHEMISTRY,0.81,mg/dL,0.1,1.2,0.81,0.81,mg/dL,0.1,1.2,NORMAL,,WEEK 16,8,11/3/2025,112
STUDY001,LB,STUDY001-SUBJ0009,79,L00079,ALP,Alkaline Phosphatase,CHEMISTRY,91.81,U/L,44,147,91.81,91.81,U/L,44,147,NORMAL,,WEEK 16,8,11/3/2025,112
STUDY001,LB,STUDY001-SUBJ0009,80,L00080,ALT,Alanine Aminotransferase,CHEMISTRY,35.68,U/L,7,56,35.68,35.68,U/L,7,56,NORMAL,,WEEK 16,8,11/3/2025,112
STUDY001,LB,STUDY001-SUBJ0009,81,L00081,HGB,Hemoglobin,HEMATOLOGY,17.03,g/dL,13.5,17.5,17.03,17.03,g/dL,13.5,17.5,NORMAL,,END OF TREATMENT,9,12/1/2025,140
STUDY001,LB,STUDY001-SUBJ0009,82,L00082,HCT,Hematocrit,HEMATOLOGY,45.55,%,41,51,45.55,45.55,%,41,51,NORMAL,,END OF TREATMENT,9,12/1/2025,140
STUDY001,LB,STUDY001-SUBJ0009,83,L00083,WBC,White Blood Cell Count,HEMATOLOGY,4.04,10^9/L,4.5,11,4.04,4.04,10^9/L,4.5,11,LOW,,END OF TREATMENT,9,12/1/2025,140
STUDY001,LB,STUDY001-SUBJ0009,84,L00084,PLT,Platelet Count,HEMATOLOGY,315.74,10^9/L,150,450,315.74,315.74,10^9/L,150,450,NORMAL,,END OF TREATMENT,9,12/1/2025,140
STUDY001,LB,STUDY001-SUBJ0009,85,L00085,GLUC,Glucose,CHEMISTRY,89.76,mg/dL,70,100,89.76,89.76,mg/dL,70,100,NORMAL,,END OF TREATMENT,9,12/1/2025,140
STUDY001,LB,STUDY001-SUBJ0009,86,L00086,BUN,Blood Urea Nitrogen,CHEMISTRY,11.9,mg/dL,7,20,11.9,11.9,mg/dL,7,20,NORMAL,,END OF TREATMENT,9,12/1/2025,140
STUDY001,LB,STUDY001-SUBJ0009,87,L00087,CREAT,Creatinine,CHEMISTRY,0.76,mg/dL,0.6,1.2,0.76,0.76,mg/dL,0.6,1.2,NORMAL,,END OF TREATMENT,9,12/1/2025,140
STUDY001,LB,STUDY001-SUBJ0009,88,L00088,BILI,Total Bilirubin,CHEMISTRY,0.81,mg/dL,0.1,1.2,0.81,0.81,mg/dL,0.1,1.2,NORMAL,,END OF TREATMENT,9,12/1/2025,140
STUDY001,LB,STUDY001-SUBJ0009,89,L00089,ALP,Alkaline Phosphatase,CHEMISTRY,84.33,U/L,44,147,84.33,84.33,U/L,44,147,NORMAL,,END OF TREATMENT,9,12/1/2025,140
STUDY001,LB,STUDY001-SUBJ0009,90,L00090,ALT,Alanine Aminotransferase,CHEMISTRY,36.43,U/L,7,56,36.43,36.43,U/L,7,56,NORMAL,,END OF TREATMENT,9,12/1/2025,140
STUDY001,LB,STUDY001-SUBJ0010,1,L00001,HGB,Hemoglobin,HEMATOLOGY,16.17,g/dL,13.5,17.5,16.17,16.17,g/dL,13.5,17.5,NORMAL,,SCREENING,1,8/8/2025,-14
STUDY001,LB,STUDY001-SUBJ0010,2,L00002,HCT,Hematocrit,HEMATOLOGY,48.14,%,41,51,48.14,48.14,%,41,51,NORMAL,,SCREENING,1,8/8/2025,-14
STUDY001,LB,STUDY001-SUBJ0010,3,L00003,WBC,White Blood Cell Count,HEMATOLOGY,9.13,10^9/L,4.5,11,9.13,9.13,10^9/L,4.5,11,NORMAL,,SCREENING,1,8/8/2025,-14
STUDY001,LB,STUDY001-SUBJ0010,4,L00004,PLT,Platelet Count,HEMATOLOGY,269.04,10^9/L,150,450,269.04,269.04,10^9/L,150,450,NORMAL,,SCREENING,1,8/8/2025,-14
STUDY001,LB,STUDY001-SUBJ0010,5,L00005,GLUC,Glucose,CHEMISTRY,86.22,mg/dL,70,100,86.22,86.22,mg/dL,70,100,NORMAL,,SCREENING,1,8/8/2025,-14
STUDY001,LB,STUDY001-SUBJ0010,6,L00006,BUN,Blood Urea Nitrogen,CHEMISTRY,13,mg/dL,7,20,13,13,mg/dL,7,20,NORMAL,,SCREENING,1,8/8/2025,-14
STUDY001,LB,STUDY001-SUBJ0010,7,L00007,CREAT,Creatinine,CHEMISTRY,1.03,mg/dL,0.6,1.2,1.03,1.03,mg/dL,0.6,1.2,NORMAL,,SCREENING,1,8/8/2025,-14
STUDY001,LB,STUDY001-SUBJ0010,8,L00008,BILI,Total Bilirubin,CHEMISTRY,0.8,mg/dL,0.1,1.2,0.8,0.8,mg/dL,0.1,1.2,NORMAL,,SCREENING,1,8/8/2025,-14
STUDY001,LB,STUDY001-SUBJ0010,9,L00009,ALP,Alkaline Phosphatase,CHEMISTRY,84.98,U/L,44,147,84.98,84.98,U/L,44,147,NORMAL,,SCREENING,1,8/8/2025,-14
STUDY001,LB,STUDY001-SUBJ0010,10,L00010,ALT,Alanine Aminotransferase,CHEMISTRY,42.06,U/L,7,56,42.06,42.06,U/L,7,56,NORMAL,,SCREENING,1,8/8/2025,-14
STUDY001,LB,STUDY001-SUBJ0010,11,L00011,HGB,Hemoglobin,HEMATOLOGY,16.24,g/dL,13.5,17.5,16.24,16.24,g/dL,13.5,17.5,NORMAL,Y,BASELINE,2,8/22/2025,1
STUDY001,LB,STUDY001-SUBJ0010,12,L00012,HCT,Hematocrit,HEMATOLOGY,48.22,%,41,51,48.22,48.22,%,41,51,NORMAL,Y,BASELINE,2,8/22/2025,1
STUDY001,LB,STUDY001-SUBJ0010,13,L00013,WBC,White Blood Cell Count,HEMATOLOGY,8.93,10^9/L,4.5,11,8.93,8.93,10^9/L,4.5,11,NORMAL,Y,BASELINE,2,8/22/2025,1
STUDY001,LB,STUDY001-SUBJ0010,14,L00014,PLT,Platelet Count,HEMATOLOGY,271.89,10^9/L,150,450,271.89,271.89,10^9/L,150,450,NORMAL,Y,BASELINE,2,8/22/2025,1
STUDY001,LB,STUDY001-SUBJ0010,15,L00015,GLUC,Glucose,CHEMISTRY,85.96,mg/dL,70,100,85.96,85.96,mg/dL,70,100,NORMAL,Y,BASELINE,2,8/22/2025,1
STUDY001,LB,STUDY001-SUBJ0010,16,L00016,BUN,Blood Urea Nitrogen,CHEMISTRY,13.12,mg/dL,7,20,13.12,13.12,mg/dL,7,20,NORMAL,Y,BASELINE,2,8/22/2025,1
STUDY001,LB,STUDY001-SUBJ0010,17,L00017,CREAT,Creatinine,CHEMISTRY,1.02,mg/dL,0.6,1.2,1.02,1.02,mg/dL,0.6,1.2,NORMAL,Y,BASELINE,2,8/22/2025,1
STUDY001,LB,STUDY001-SUBJ0010,18,L00018,BILI,Total Bilirubin,CHEMISTRY,0.83,mg/dL,0.1,1.2,0.83,0.83,mg/dL,0.1,1.2,NORMAL,Y,BASELINE,2,8/22/2025,1
STUDY001,LB,STUDY001-SUBJ0010,19,L00019,ALP,Alkaline Phosphatase,CHEMISTRY,82.54,U/L,44,147,82.54,82.54,U/L,44,147,NORMAL,Y,BASELINE,2,8/22/2025,1
STUDY001,LB,STUDY001-SUBJ0010,20,L00020,ALT,Alanine Aminotransferase,CHEMISTRY,40.73,U/L,7,56,40.73,40.73,U/L,7,56,NORMAL,Y,BASELINE,2,8/22/2025,1
STUDY001,LB,STUDY001-SUBJ0010,21,L00021,HGB,Hemoglobin,HEMATOLOGY,16.22,g/dL,13.5,17.5,16.22,16.22,g/dL,13.5,17.5,NORMAL,,WEEK 1,3,8/28/2025,7
STUDY001,LB,STUDY001-SUBJ0010,22,L00022,HCT,Hematocrit,HEMATOLOGY,47.84,%,41,51,47.84,47.84,%,41,51,NORMAL,,WEEK 1,3,8/28/2025,7
STUDY001,LB,STUDY001-SUBJ0010,23,L00023,WBC,White Blood Cell Count,HEMATOLOGY,9,10^9/L,4.5,11,9,9,10^9/L,4.5,11,NORMAL,,WEEK 1,3,8/28/2025,7
STUDY001,LB,STUDY001-SUBJ0010,24,L00024,PLT,Platelet Count,HEMATOLOGY,257.34,10^9/L,150,450,257.34,257.34,10^9/L,150,450,NORMAL,,WEEK 1,3,8/28/2025,7
STUDY001,LB,STUDY001-SUBJ0010,25,L00025,GLUC,Glucose,CHEMISTRY,85.56,mg/dL,70,100,85.56,85.56,mg/dL,70,100,NORMAL,,WEEK 1,3,8/28/2025,7
STUDY001,LB,STUDY001-SUBJ0010,26,L00026,BUN,Blood Urea Nitrogen,CHEMISTRY,13.05,mg/dL,7,20,13.05,13.05,mg/dL,7,20,NORMAL,,WEEK 1,3,8/28/2025,7
STUDY001,LB,STUDY001-SUBJ0010,27,L00027,CREAT,Creatinine,CHEMISTRY,1.04,mg/dL,0.6,1.2,1.04,1.04,mg/dL,0.6,1.2,NORMAL,,WEEK 1,3,8/28/2025,7
STUDY001,LB,STUDY001-SUBJ0010,28,L00028,BILI,Total Bilirubin,CHEMISTRY,0.83,mg/dL,0.1,1.2,0.83,0.83,mg/dL,0.1,1.2,NORMAL,,WEEK 1,3,8/28/2025,7
STUDY001,LB,STUDY001-SUBJ0010,29,L00029,ALP,Alkaline Phosphatase,CHEMISTRY,85.74,U/L,44,147,85.74,85.74,U/L,44,147,NORMAL,,WEEK 1,3,8/28/2025,7
STUDY001,LB,STUDY001-SUBJ0010,30,L00030,ALT,Alanine Aminotransferase,CHEMISTRY,42.22,U/L,7,56,42.22,42.22,U/L,7,56,NORMAL,,WEEK 1,3,8/28/2025,7
STUDY001,LB,STUDY001-SUBJ0010,31,L00031,HGB,Hemoglobin,HEMATOLOGY,16.21,g/dL,13.5,17.5,16.21,16.21,g/dL,13.5,17.5,NORMAL,,WEEK 2,4,9/4/2025,14
STUDY001,LB,STUDY001-SUBJ0010,32,L00032,HCT,Hematocrit,HEMATOLOGY,47.68,%,41,51,47.68,47.68,%,41,51,NORMAL,,WEEK 2,4,9/4/2025,14
STUDY001,LB,STUDY001-SUBJ0010,33,L00033,WBC,White Blood Cell Count,HEMATOLOGY,9.34,10^9/L,4.5,11,9.34,9.34,10^9/L,4.5,11,NORMAL,,WEEK 2,4,9/4/2025,14
STUDY001,LB,STUDY001-SUBJ0010,34,L00034,PLT,Platelet Count,HEMATOLOGY,275.22,10^9/L,150,450,275.22,275.22,10^9/L,150,450,NORMAL,,WEEK 2,4,9/4/2025,14
STUDY001,LB,STUDY001-SUBJ0010,35,L00035,GLUC,Glucose,CHEMISTRY,86.29,mg/dL,70,100,86.29,86.29,mg/dL,70,100,NORMAL,,WEEK 2,4,9/4/2025,14
STUDY001,LB,STUDY001-SUBJ0010,36,L00036,BUN,Blood Urea Nitrogen,CHEMISTRY,12.95,mg/dL,7,20,12.95,12.95,mg/dL,7,20,NORMAL,,WEEK 2,4,9/4/2025,14
STUDY001,LB,STUDY001-SUBJ0010,37,L00037,CREAT,Creatinine,CHEMISTRY,1.03,mg/dL,0.6,1.2,1.03,1.03,mg/dL,0.6,1.2,NORMAL,,WEEK 2,4,9/4/2025,14
STUDY001,LB,STUDY001-SUBJ0010,38,L00038,BILI,Total Bilirubin,CHEMISTRY,0.84,mg/dL,0.1,1.2,0.84,0.84,mg/dL,0.1,1.2,NORMAL,,WEEK 2,4,9/4/2025,14
STUDY001,LB,STUDY001-SUBJ0010,39,L00039,ALP,Alkaline Phosphatase,CHEMISTRY,85.97,U/L,44,147,85.97,85.97,U/L,44,147,NORMAL,,WEEK 2,4,9/4/2025,14
STUDY001,LB,STUDY001-SUBJ0010,40,L00040,ALT,Alanine Aminotransferase,CHEMISTRY,40.92,U/L,7,56,40.92,40.92,U/L,7,56,NORMAL,,WEEK 2,4,9/4/2025,14
STUDY001,LB,STUDY001-SUBJ0010,41,L00041,HGB,Hemoglobin,HEMATOLOGY,16.09,g/dL,13.5,17.5,16.09,16.09,g/dL,13.5,17.5,NORMAL,,WEEK 4,5,9/18/2025,28
STUDY001,LB,STUDY001-SUBJ0010,42,L00042,HCT,Hematocrit,HEMATOLOGY,47.85,%,41,51,47.85,47.85,%,41,51,NORMAL,,WEEK 4,5,9/18/2025,28
STUDY001,LB,STUDY001-SUBJ0010,43,L00043,WBC,White Blood Cell Count,HEMATOLOGY,9.55,10^9/L,4.5,11,9.55,9.55,10^9/L,4.5,11,NORMAL,,WEEK 4,5,9/18/2025,28
STUDY001,LB,STUDY001-SUBJ0010,44,L00044,PLT,Platelet Count,HEMATOLOGY,267.2,10^9/L,150,450,267.2,267.2,10^9/L,150,450,NORMAL,,WEEK 4,5,9/18/2025,28
STUDY001,LB,STUDY001-SUBJ0010,45,L00045,GLUC,Glucose,CHEMISTRY,84.33,mg/dL,70,100,84.33,84.33,mg/dL,70,100,NORMAL,,WEEK 4,5,9/18/2025,28
STUDY001,LB,STUDY001-SUBJ0010,46,L00046,BUN,Blood Urea Nitrogen,CHEMISTRY,13.44,mg/dL,7,20,13.44,13.44,mg/dL,7,20,NORMAL,,WEEK 4,5,9/18/2025,28
STUDY001,LB,STUDY001-SUBJ0010,47,L00047,CREAT,Creatinine,CHEMISTRY,1.02,mg/dL,0.6,1.2,1.02,1.02,mg/dL,0.6,1.2,NORMAL,,WEEK 4,5,9/18/2025,28
STUDY001,LB,STUDY001-SUBJ0010,48,L00048,BILI,Total Bilirubin,CHEMISTRY,0.82,mg/dL,0.1,1.2,0.82,0.82,mg/dL,0.1,1.2,NORMAL,,WEEK 4,5,9/18/2025,28
STUDY001,LB,STUDY001-SUBJ0010,49,L00049,ALP,Alkaline Phosphatase,CHEMISTRY,81.39,U/L,44,147,81.39,81.39,U/L,44,147,NORMAL,,WEEK 4,5,9/18/2025,28
STUDY001,LB,STUDY001-SUBJ0010,50,L00050,ALT,Alanine Aminotransferase,CHEMISTRY,40.96,U/L,7,56,40.96,40.96,U/L,7,56,NORMAL,,WEEK 4,5,9/18/2025,28
STUDY001,LB,STUDY001-SUBJ0010,51,L00051,HGB,Hemoglobin,HEMATOLOGY,16.1,g/dL,13.5,17.5,16.1,16.1,g/dL,13.5,17.5,NORMAL,,WEEK 8,6,10/16/2025,56
STUDY001,LB,STUDY001-SUBJ0010,52,L00052,HCT,Hematocrit,HEMATOLOGY,48.07,%,41,51,48.07,48.07,%,41,51,NORMAL,,WEEK 8,6,10/16/2025,56
STUDY001,LB,STUDY001-SUBJ0010,53,L00053,WBC,White Blood Cell Count,HEMATOLOGY,9.25,10^9/L,4.5,11,9.25,9.25,10^9/L,4.5,11,NORMAL,,WEEK 8,6,10/16/2025,56
STUDY001,LB,STUDY001-SUBJ0010,54,L00054,PLT,Platelet Count,HEMATOLOGY,275.04,10^9/L,150,450,275.04,275.04,10^9/L,150,450,NORMAL,,WEEK 8,6,10/16/2025,56
STUDY001,LB,STUDY001-SUBJ0010,55,L00055,GLUC,Glucose,CHEMISTRY,87.54,mg/dL,70,100,87.54,87.54,mg/dL,70,100,NORMAL,,WEEK 8,6,10/16/2025,56
STUDY001,LB,STUDY001-SUBJ0010,56,L00056,BUN,Blood Urea Nitrogen,CHEMISTRY,12.81,mg/dL,7,20,12.81,12.81,mg/dL,7,20,NORMAL,,WEEK 8,6,10/16/2025,56
STUDY001,LB,STUDY001-SUBJ0010,57,L00057,CREAT,Creatinine,CHEMISTRY,1.04,mg/dL,0.6,1.2,1.04,1.04,mg/dL,0.6,1.2,NORMAL,,WEEK 8,6,10/16/2025,56
STUDY001,LB,STUDY001-SUBJ0010,58,L00058,BILI,Total Bilirubin,CHEMISTRY,0.79,mg/dL,0.1,1.2,0.79,0.79,mg/dL,0.1,1.2,NORMAL,,WEEK 8,6,10/16/2025,56
STUDY001,LB,STUDY001-SUBJ0010,59,L00059,ALP,Alkaline Phosphatase,CHEMISTRY,84.18,U/L,44,147,84.18,84.18,U/L,44,147,NORMAL,,WEEK 8,6,10/16/2025,56
STUDY001,LB,STUDY001-SUBJ0010,60,L00060,ALT,Alanine Aminotransferase,CHEMISTRY,41.53,U/L,7,56,41.53,41.53,U/L,7,56,NORMAL,,WEEK 8,6,10/16/2025,56
STUDY001,LB,STUDY001-SUBJ0010,61,L00061,HGB,Hemoglobin,HEMATOLOGY,16.12,g/dL,13.5,17.5,16.12,16.12,g/dL,13.5,17.5,NORMAL,,WEEK 12,7,11/13/2025,84
STUDY001,LB,STUDY001-SUBJ0010,62,L00062,HCT,Hematocrit,HEMATOLOGY,47.5,%,41,51,47.5,47.5,%,41,51,NORMAL,,WEEK 12,7,11/13/2025,84
STUDY001,LB,STUDY001-SUBJ0010,63,L00063,WBC,White Blood Cell Count,HEMATOLOGY,9.2,10^9/L,4.5,11,9.2,9.2,10^9/L,4.5,11,NORMAL,,WEEK 12,7,11/13/2025,84
STUDY001,LB,STUDY001-SUBJ0010,64,L00064,PLT,Platelet Count,HEMATOLOGY,270.08,10^9/L,150,450,270.08,270.08,10^9/L,150,450,NORMAL,,WEEK 12,7,11/13/2025,84
STUDY001,LB,STUDY001-SUBJ0010,65,L00065,GLUC,Glucose,CHEMISTRY,86.91,mg/dL,70,100,86.91,86.91,mg/dL,70,100,NORMAL,,WEEK 12,7,11/13/2025,84
STUDY001,LB,STUDY001-SUBJ0010,66,L00066,BUN,Blood Urea Nitrogen,CHEMISTRY,12.81,mg/dL,7,20,12.81,12.81,mg/dL,7,20,NORMAL,,WEEK 12,7,11/13/2025,84
STUDY001,LB,STUDY001-SUBJ0010,67,L00067,CREAT,Creatinine,CHEMISTRY,1.01,mg/dL,0.6,1.2,1.01,1.01,mg/dL,0.6,1.2,NORMAL,,WEEK 12,7,11/13/2025,84
STUDY001,LB,STUDY001-SUBJ0010,68,L00068,BILI,Total Bilirubin,CHEMISTRY,0.84,mg/dL,0.1,1.2,0.84,0.84,mg/dL,0.1,1.2,NORMAL,,WEEK 12,7,11/13/2025,84
STUDY001,LB,STUDY001-SUBJ0010,69,L00069,ALP,Alkaline Phosphatase,CHEMISTRY,81.21,U/L,44,147,81.21,81.21,U/L,44,147,NORMAL,,WEEK 12,7,11/13/2025,84
STUDY001,LB,STUDY001-SUBJ0010,70,L00070,ALT,Alanine Aminotransferase,CHEMISTRY,38.84,U/L,7,56,38.84,38.84,U/L,7,56,NORMAL,,WEEK 12,7,11/13/2025,84
STUDY001,LB,STUDY001-SUBJ0010,71,L00071,HGB,Hemoglobin,HEMATOLOGY,16.38,g/dL,13.5,17.5,16.38,16.38,g/dL,13.5,17.5,NORMAL,,WEEK 16,8,12/11/2025,112
STUDY001,LB,STUDY001-SUBJ0010,72,L00072,HCT,Hematocrit,HEMATOLOGY,47.25,%,41,51,47.25,47.25,%,41,51,NORMAL,,WEEK 16,8,12/11/2025,112
STUDY001,LB,STUDY001-SUBJ0010,73,L00073,WBC,White Blood Cell Count,HEMATOLOGY,9.13,10^9/L,4.5,11,9.13,9.13,10^9/L,4.5,11,NORMAL,,WEEK 16,8,12/11/2025,112
STUDY001,LB,STUDY001-SUBJ0010,74,L00074,PLT,Platelet Count,HEMATOLOGY,263.43,10^9/L,150,450,263.43,263.43,10^9/L,150,450,NORMAL,,WEEK 16,8,12/11/2025,112
STUDY001,LB,STUDY001-SUBJ0010,75,L00075,GLUC,Glucose,CHEMISTRY,87.52,mg/dL,70,100,87.52,87.52,mg/dL,70,100,NORMAL,,WEEK 16,8,12/11/2025,112
STUDY001,LB,STUDY001-SUBJ0010,76,L00076,BUN,Blood Urea Nitrogen,CHEMISTRY,12.92,mg/dL,7,20,12.92,12.92,mg/dL,7,20,NORMAL,,WEEK 16,8,12/11/2025,112
STUDY001,LB,STUDY001-SUBJ0010,77,L00077,CREAT,Creatinine,CHEMISTRY,1.03,mg/dL,0.6,1.2,1.03,1.03,mg/dL,0.6,1.2,NORMAL,,WEEK 16,8,12/11/2025,112
STUDY001,LB,STUDY001-SUBJ0010,78,L00078,BILI,Total Bilirubin,CHEMISTRY,0.82,mg/dL,0.1,1.2,0.82,0.82,mg/dL,0.1,1.2,NORMAL,,WEEK 16,8,12/11/2025,112
STUDY001,LB,STUDY001-SUBJ0010,79,L00079,ALP,Alkaline Phosphatase,CHEMISTRY,86.64,U/L,44,147,86.64,86.64,U/L,44,147,NORMAL,,WEEK 16,8,12/11/2025,112
STUDY001,LB,STUDY001-SUBJ0010,80,L00080,ALT,Alanine Aminotransferase,CHEMISTRY,40.89,U/L,7,56,40.89,40.89,U/L,7,56,NORMAL,,WEEK 16,8,12/11/2025,112
STUDY001,LB,STUDY001-SUBJ0010,81,L00081,HGB,Hemoglobin,HEMATOLOGY,16.18,g/dL,13.5,17.5,16.18,16.18,g/dL,13.5,17.5,NORMAL,,END OF TREATMENT,9,1/8/2026,140
STUDY001,LB,STUDY001-SUBJ0010,82,L00082,HCT,Hematocrit,HEMATOLOGY,47.56,%,41,51,47.56,47.56,%,41,51,NORMAL,,END OF TREATMENT,9,1/8/2026,140
STUDY001,LB,STUDY001-SUBJ0010,83,L00083,WBC,White Blood Cell Count,HEMATOLOGY,8.9,10^9/L,4.5,11,8.9,8.9,10^9/L,4.5,11,NORMAL,,END OF TREATMENT,9,1/8/2026,140
STUDY001,LB,STUDY001-SUBJ0010,84,L00084,PLT,Platelet Count,HEMATOLOGY,267.71,10^9/L,150,450,267.71,267.71,10^9/L,150,450,NORMAL,,END OF TREATMENT,9,1/8/2026,140
STUDY001,LB,STUDY001-SUBJ0010,85,L00085,GLUC,Glucose,CHEMISTRY,86.85,mg/dL,70,100,86.85,86.85,mg/dL,70,100,NORMAL,,END OF TREATMENT,9,1/8/2026,140
STUDY001,LB,STUDY001-SUBJ0010,86,L00086,BUN,Blood Urea Nitrogen,CHEMISTRY,13.5,mg/dL,7,20,13.5,13.5,mg/dL,7,20,NORMAL,,END OF TREATMENT,9,1/8/2026,140
STUDY001,LB,STUDY001-SUBJ0010,87,L00087,CREAT,Creatinine,CHEMISTRY,1.04,mg/dL,0.6,1.2,1.04,1.04,mg/dL,0.6,1.2,NORMAL,,END OF TREATMENT,9,1/8/2026,140
STUDY001,LB,STUDY001-SUBJ0010,88,L00088,BILI,Total Bilirubin,CHEMISTRY,0.81,mg/dL,0.1,1.2,0.81,0.81,mg/dL,0.1,1.2,NORMAL,,END OF TREATMENT,9,1/8/2026,140
STUDY001,LB,STUDY001-SUBJ0010,89,L00089,ALP,Alkaline Phosphatase,CHEMISTRY,78.6,U/L,44,147,78.6,78.6,U/L,44,147,NORMAL,,END OF TREATMENT,9,1/8/2026,140
STUDY001,LB,STUDY001-SUBJ0010,90,L00090,ALT,Alanine Aminotransferase,CHEMISTRY,42.46,U/L,7,56,42.46,42.46,U/L,7,56,NORMAL,,END OF TREATMENT,9,1/8/2026,140
STUDY001,LB,STUDY001-SUBJ0011,1,L00001,HGB,Hemoglobin,HEMATOLOGY,14.63,g/dL,13.5,17.5,14.63,14.63,g/dL,13.5,17.5,NORMAL,,SCREENING,1,9/9/2025,-14
STUDY001,LB,STUDY001-SUBJ0011,2,L00002,HCT,Hematocrit,HEMATOLOGY,48.56,%,41,51,48.56,48.56,%,41,51,NORMAL,,SCREENING,1,9/9/2025,-14
STUDY001,LB,STUDY001-SUBJ0011,3,L00003,WBC,White Blood Cell Count,HEMATOLOGY,9.61,10^9/L,4.5,11,9.61,9.61,10^9/L,4.5,11,NORMAL,,SCREENING,1,9/9/2025,-14
STUDY001,LB,STUDY001-SUBJ0011,4,L00004,PLT,Platelet Count,HEMATOLOGY,324.25,10^9/L,150,450,324.25,324.25,10^9/L,150,450,NORMAL,,SCREENING,1,9/9/2025,-14
STUDY001,LB,STUDY001-SUBJ0011,5,L00005,GLUC,Glucose,CHEMISTRY,70.86,mg/dL,70,100,70.86,70.86,mg/dL,70,100,NORMAL,,SCREENING,1,9/9/2025,-14
STUDY001,LB,STUDY001-SUBJ0011,6,L00006,BUN,Blood Urea Nitrogen,CHEMISTRY,12.84,mg/dL,7,20,12.84,12.84,mg/dL,7,20,NORMAL,,SCREENING,1,9/9/2025,-14
STUDY001,LB,STUDY001-SUBJ0011,7,L00007,CREAT,Creatinine,CHEMISTRY,0.8,mg/dL,0.6,1.2,0.8,0.8,mg/dL,0.6,1.2,NORMAL,,SCREENING,1,9/9/2025,-14
STUDY001,LB,STUDY001-SUBJ0011,8,L00008,BILI,Total Bilirubin,CHEMISTRY,0.83,mg/dL,0.1,1.2,0.83,0.83,mg/dL,0.1,1.2,NORMAL,,SCREENING,1,9/9/2025,-14
STUDY001,LB,STUDY001-SUBJ0011,9,L00009,ALP,Alkaline Phosphatase,CHEMISTRY,100.32,U/L,44,147,100.32,100.32,U/L,44,147,NORMAL,,SCREENING,1,9/9/2025,-14
STUDY001,LB,STUDY001-SUBJ0011,10,L00010,ALT,Alanine Aminotransferase,CHEMISTRY,38.07,U/L,7,56,38.07,38.07,U/L,7,56,NORMAL,,SCREENING,1,9/9/2025,-14
STUDY001,LB,STUDY001-SUBJ0011,11,L00011,HGB,Hemoglobin,HEMATOLOGY,14.84,g/dL,13.5,17.5,14.84,14.84,g/dL,13.5,17.5,NORMAL,Y,BASELINE,2,9/23/2025,1
STUDY001,LB,STUDY001-SUBJ0011,12,L00012,HCT,Hematocrit,HEMATOLOGY,48.4,%,41,51,48.4,48.4,%,41,51,NORMAL,Y,BASELINE,2,9/23/2025,1
STUDY001,LB,STUDY001-SUBJ0011,13,L00013,WBC,White Blood Cell Count,HEMATOLOGY,9.48,10^9/L,4.5,11,9.48,9.48,10^9/L,4.5,11,NORMAL,Y,BASELINE,2,9/23/2025,1
STUDY001,LB,STUDY001-SUBJ0011,14,L00014,PLT,Platelet Count,HEMATOLOGY,330.23,10^9/L,150,450,330.23,330.23,10^9/L,150,450,NORMAL,Y,BASELINE,2,9/23/2025,1
STUDY001,LB,STUDY001-SUBJ0011,15,L00015,GLUC,Glucose,CHEMISTRY,68.64,mg/dL,70,100,68.64,68.64,mg/dL,70,100,LOW,Y,BASELINE,2,9/23/2025,1
STUDY001,LB,STUDY001-SUBJ0011,16,L00016,BUN,Blood Urea Nitrogen,CHEMISTRY,13.31,mg/dL,7,20,13.31,13.31,mg/dL,7,20,NORMAL,Y,BASELINE,2,9/23/2025,1
STUDY001,LB,STUDY001-SUBJ0011,17,L00017,CREAT,Creatinine,CHEMISTRY,0.8,mg/dL,0.6,1.2,0.8,0.8,mg/dL,0.6,1.2,NORMAL,Y,BASELINE,2,9/23/2025,1
STUDY001,LB,STUDY001-SUBJ0011,18,L00018,BILI,Total Bilirubin,CHEMISTRY,0.83,mg/dL,0.1,1.2,0.83,0.83,mg/dL,0.1,1.2,NORMAL,Y,BASELINE,2,9/23/2025,1
STUDY001,LB,STUDY001-SUBJ0011,19,L00019,ALP,Alkaline Phosphatase,CHEMISTRY,97.25,U/L,44,147,97.25,97.25,U/L,44,147,NORMAL,Y,BASELINE,2,9/23/2025,1
STUDY001,LB,STUDY001-SUBJ0011,20,L00020,ALT,Alanine Aminotransferase,CHEMISTRY,39.4,U/L,7,56,39.4,39.4,U/L,7,56,NORMAL,Y,BASELINE,2,9/23/2025,1
STUDY001,LB,STUDY001-SUBJ0011,21,L00021,HGB,Hemoglobin,HEMATOLOGY,14.96,g/dL,13.5,17.5,14.96,14.96,g/dL,13.5,17.5,NORMAL,,WEEK 1,3,9/29/2025,7
STUDY001,LB,STUDY001-SUBJ0011,22,L00022,HCT,Hematocrit,HEMATOLOGY,48.31,%,41,51,48.31,48.31,%,41,51,NORMAL,,WEEK 1,3,9/29/2025,7
STUDY001,LB,STUDY001-SUBJ0011,23,L00023,WBC,White Blood Cell Count,HEMATOLOGY,9.42,10^9/L,4.5,11,9.42,9.42,10^9/L,4.5,11,NORMAL,,WEEK 1,3,9/29/2025,7
STUDY001,LB,STUDY001-SUBJ0011,24,L00024,PLT,Platelet Count,HEMATOLOGY,316.65,10^9/L,150,450,316.65,316.65,10^9/L,150,450,NORMAL,,WEEK 1,3,9/29/2025,7
STUDY001,LB,STUDY001-SUBJ0011,25,L00025,GLUC,Glucose,CHEMISTRY,70.38,mg/dL,70,100,70.38,70.38,mg/dL,70,100,NORMAL,,WEEK 1,3,9/29/2025,7
STUDY001,LB,STUDY001-SUBJ0011,26,L00026,BUN,Blood Urea Nitrogen,CHEMISTRY,13.36,mg/dL,7,20,13.36,13.36,mg/dL,7,20,NORMAL,,WEEK 1,3,9/29/2025,7
STUDY001,LB,STUDY001-SUBJ0011,27,L00027,CREAT,Creatinine,CHEMISTRY,0.81,mg/dL,0.6,1.2,0.81,0.81,mg/dL,0.6,1.2,NORMAL,,WEEK 1,3,9/29/2025,7
STUDY001,LB,STUDY001-SUBJ0011,28,L00028,BILI,Total Bilirubin,CHEMISTRY,0.79,mg/dL,0.1,1.2,0.79,0.79,mg/dL,0.1,1.2,NORMAL,,WEEK 1,3,9/29/2025,7
STUDY001,LB,STUDY001-SUBJ0011,29,L00029,ALP,Alkaline Phosphatase,CHEMISTRY,93.71,U/L,44,147,93.71,93.71,U/L,44,147,NORMAL,,WEEK 1,3,9/29/2025,7
STUDY001,LB,STUDY001-SUBJ0011,30,L00030,ALT,Alanine Aminotransferase,CHEMISTRY,39.8,U/L,7,56,39.8,39.8,U/L,7,56,NORMAL,,WEEK 1,3,9/29/2025,7
STUDY001,LB,STUDY001-SUBJ0011,31,L00031,HGB,Hemoglobin,HEMATOLOGY,14.87,g/dL,13.5,17.5,14.87,14.87,g/dL,13.5,17.5,NORMAL,,WEEK 2,4,10/6/2025,14
STUDY001,LB,STUDY001-SUBJ0011,32,L00032,HCT,Hematocrit,HEMATOLOGY,48.37,%,41,51,48.37,48.37,%,41,51,NORMAL,,WEEK 2,4,10/6/2025,14
STUDY001,LB,STUDY001-SUBJ0011,33,L00033,WBC,White Blood Cell Count,HEMATOLOGY,9,10^9/L,4.5,11,9,9,10^9/L,4.5,11,NORMAL,,WEEK 2,4,10/6/2025,14
STUDY001,LB,STUDY001-SUBJ0011,34,L00034,PLT,Platelet Count,HEMATOLOGY,325.45,10^9/L,150,450,325.45,325.45,10^9/L,150,450,NORMAL,,WEEK 2,4,10/6/2025,14
STUDY001,LB,STUDY001-SUBJ0011,35,L00035,GLUC,Glucose,CHEMISTRY,70.38,mg/dL,70,100,70.38,70.38,mg/dL,70,100,NORMAL,,WEEK 2,4,10/6/2025,14
STUDY001,LB,STUDY001-SUBJ0011,36,L00036,BUN,Blood Urea Nitrogen,CHEMISTRY,13.21,mg/dL,7,20,13.21,13.21,mg/dL,7,20,NORMAL,,WEEK 2,4,10/6/2025,14
STUDY001,LB,STUDY001-SUBJ0011,37,L00037,CREAT,Creatinine,CHEMISTRY,0.79,mg/dL,0.6,1.2,0.79,0.79,mg/dL,0.6,1.2,NORMAL,,WEEK 2,4,10/6/2025,14
STUDY001,LB,STUDY001-SUBJ0011,38,L00038,BILI,Total Bilirubin,CHEMISTRY,0.86,mg/dL,0.1,1.2,0.86,0.86,mg/dL,0.1,1.2,NORMAL,,WEEK 2,4,10/6/2025,14
STUDY001,LB,STUDY001-SUBJ0011,39,L00039,ALP,Alkaline Phosphatase,CHEMISTRY,97.42,U/L,44,147,97.42,97.42,U/L,44,147,NORMAL,,WEEK 2,4,10/6/2025,14
STUDY001,LB,STUDY001-SUBJ0011,40,L00040,ALT,Alanine Aminotransferase,CHEMISTRY,38.52,U/L,7,56,38.52,38.52,U/L,7,56,NORMAL,,WEEK 2,4,10/6/2025,14
STUDY001,LB,STUDY001-SUBJ0011,41,L00041,HGB,Hemoglobin,HEMATOLOGY,14.85,g/dL,13.5,17.5,14.85,14.85,g/dL,13.5,17.5,NORMAL,,WEEK 4,5,10/20/2025,28
STUDY001,LB,STUDY001-SUBJ0011,42,L00042,HCT,Hematocrit,HEMATOLOGY,49.12,%,41,51,49.12,49.12,%,41,51,NORMAL,,WEEK 4,5,10/20/2025,28
STUDY001,LB,STUDY001-SUBJ0011,43,L00043,WBC,White Blood Cell Count,HEMATOLOGY,9.54,10^9/L,4.5,11,9.54,9.54,10^9/L,4.5,11,NORMAL,,WEEK 4,5,10/20/2025,28
STUDY001,LB,STUDY001-SUBJ0011,44,L00044,PLT,Platelet Count,HEMATOLOGY,323.04,10^9/L,150,450,323.04,323.04,10^9/L,150,450,NORMAL,,WEEK 4,5,10/20/2025,28
STUDY001,LB,STUDY001-SUBJ0011,45,L00045,GLUC,Glucose,CHEMISTRY,70.88,mg/dL,70,100,70.88,70.88,mg/dL,70,100,NORMAL,,WEEK 4,5,10/20/2025,28
STUDY001,LB,STUDY001-SUBJ0011,46,L00046,BUN,Blood Urea Nitrogen,CHEMISTRY,13.16,mg/dL,7,20,13.16,13.16,mg/dL,7,20,NORMAL,,WEEK 4,5,10/20/2025,28
STUDY001,LB,STUDY001-SUBJ0011,47,L00047,CREAT,Creatinine,CHEMISTRY,0.78,mg/dL,0.6,1.2,0.78,0.78,mg/dL,0.6,1.2,NORMAL,,WEEK 4,5,10/20/2025,28
STUDY001,LB,STUDY001-SUBJ0011,48,L00048,BILI,Total Bilirubin,CHEMISTRY,0.83,mg/dL,0.1,1.2,0.83,0.83,mg/dL,0.1,1.2,NORMAL,,WEEK 4,5,10/20/2025,28
STUDY001,LB,STUDY001-SUBJ0011,49,L00049,ALP,Alkaline Phosphatase,CHEMISTRY,96.02,U/L,44,147,96.02,96.02,U/L,44,147,NORMAL,,WEEK 4,5,10/20/2025,28
STUDY001,LB,STUDY001-SUBJ0011,50,L00050,ALT,Alanine Aminotransferase,CHEMISTRY,38.56,U/L,7,56,38.56,38.56,U/L,7,56,NORMAL,,WEEK 4,5,10/20/2025,28
STUDY001,LB,STUDY001-SUBJ0011,51,L00051,HGB,Hemoglobin,HEMATOLOGY,14.93,g/dL,13.5,17.5,14.93,14.93,g/dL,13.5,17.5,NORMAL,,WEEK 8,6,11/17/2025,56
STUDY001,LB,STUDY001-SUBJ0011,52,L00052,HCT,Hematocrit,HEMATOLOGY,48.73,%,41,51,48.73,48.73,%,41,51,NORMAL,,WEEK 8,6,11/17/2025,56
STUDY001,LB,STUDY001-SUBJ0011,53,L00053,WBC,White Blood Cell Count,HEMATOLOGY,9.44,10^9/L,4.5,11,9.44,9.44,10^9/L,4.5,11,NORMAL,,WEEK 8,6,11/17/2025,56
STUDY001,LB,STUDY001-SUBJ0011,54,L00054,PLT,Platelet Count,HEMATOLOGY,323.43,10^9/L,150,450,323.43,323.43,10^9/L,150,450,NORMAL,,WEEK 8,6,11/17/2025,56
STUDY001,LB,STUDY001-SUBJ0011,55,L00055,GLUC,Glucose,CHEMISTRY,69.61,mg/dL,70,100,69.61,69.61,mg/dL,70,100,LOW,,WEEK 8,6,11/17/2025,56
STUDY001,LB,STUDY001-SUBJ0011,56,L00056,BUN,Blood Urea Nitrogen,CHEMISTRY,13.29,mg/dL,7,20,13.29,13.29,mg/dL,7,20,NORMAL,,WEEK 8,6,11/17/2025,56
STUDY001,LB,STUDY001-SUBJ0011,57,L00057,CREAT,Creatinine,CHEMISTRY,0.78,mg/dL,0.6,1.2,0.78,0.78,mg/dL,0.6,1.2,NORMAL,,WEEK 8,6,11/17/2025,56
STUDY001,LB,STUDY001-SUBJ0011,58,L00058,BILI,Total Bilirubin,CHEMISTRY,0.81,mg/dL,0.1,1.2,0.81,0.81,mg/dL,0.1,1.2,NORMAL,,WEEK 8,6,11/17/2025,56
STUDY001,LB,STUDY001-SUBJ0011,59,L00059,ALP,Alkaline Phosphatase,CHEMISTRY,101.29,U/L,44,147,101.29,101.29,U/L,44,147,NORMAL,,WEEK 8,6,11/17/2025,56
STUDY001,LB,STUDY001-SUBJ0011,60,L00060,ALT,Alanine Aminotransferase,CHEMISTRY,37.41,U/L,7,56,37.41,37.41,U/L,7,56,NORMAL,,WEEK 8,6,11/17/2025,56
STUDY001,LB,STUDY001-SUBJ0011,61,L00061,HGB,Hemoglobin,HEMATOLOGY,14.82,g/dL,13.5,17.5,14.82,14.82,g/dL,13.5,17.5,NORMAL,,WEEK 12,7,12/15/2025,84
STUDY001,LB,STUDY001-SUBJ0011,62,L00062,HCT,Hematocrit,HEMATOLOGY,48.82,%,41,51,48.82,48.82,%,41,51,NORMAL,,WEEK 12,7,12/15/2025,84
STUDY001,LB,STUDY001-SUBJ0011,63,L00063,WBC,White Blood Cell Count,HEMATOLOGY,9.55,10^9/L,4.5,11,9.55,9.55,10^9/L,4.5,11,NORMAL,,WEEK 12,7,12/15/2025,84
STUDY001,LB,STUDY001-SUBJ0011,64,L00064,PLT,Platelet Count,HEMATOLOGY,335.7,10^9/L,150,450,335.7,335.7,10^9/L,150,450,NORMAL,,WEEK 12,7,12/15/2025,84
STUDY001,LB,STUDY001-SUBJ0011,65,L00065,GLUC,Glucose,CHEMISTRY,70.6,mg/dL,70,100,70.6,70.6,mg/dL,70,100,NORMAL,,WEEK 12,7,12/15/2025,84
STUDY001,LB,STUDY001-SUBJ0011,66,L00066,BUN,Blood Urea Nitrogen,CHEMISTRY,12.77,mg/dL,7,20,12.77,12.77,mg/dL,7,20,NORMAL,,WEEK 12,7,12/15/2025,84
STUDY001,LB,STUDY001-SUBJ0011,67,L00067,CREAT,Creatinine,CHEMISTRY,0.79,mg/dL,0.6,1.2,0.79,0.79,mg/dL,0.6,1.2,NORMAL,,WEEK 12,7,12/15/2025,84
STUDY001,LB,STUDY001-SUBJ0011,68,L00068,BILI,Total Bilirubin,CHEMISTRY,0.83,mg/dL,0.1,1.2,0.83,0.83,mg/dL,0.1,1.2,NORMAL,,WEEK 12,7,12/15/2025,84
STUDY001,LB,STUDY001-SUBJ0011,69,L00069,ALP,Alkaline Phosphatase,CHEMISTRY,99.38,U/L,44,147,99.38,99.38,U/L,44,147,NORMAL,,WEEK 12,7,12/15/2025,84
STUDY001,LB,STUDY001-SUBJ0011,70,L00070,ALT,Alanine Aminotransferase,CHEMISTRY,37.88,U/L,7,56,37.88,37.88,U/L,7,56,NORMAL,,WEEK 12,7,12/15/2025,84
STUDY001,LB,STUDY001-SUBJ0011,71,L00071,HGB,Hemoglobin,HEMATOLOGY,14.96,g/dL,13.5,17.5,14.96,14.96,g/dL,13.5,17.5,NORMAL,,WEEK 16,8,1/12/2026,112
STUDY001,LB,STUDY001-SUBJ0011,72,L00072,HCT,Hematocrit,HEMATOLOGY,47.98,%,41,51,47.98,47.98,%,41,51,NORMAL,,WEEK 16,8,1/12/2026,112
STUDY001,LB,STUDY001-SUBJ0011,73,L00073,WBC,White Blood Cell Count,HEMATOLOGY,9.29,10^9/L,4.5,11,9.29,9.29,10^9/L,4.5,11,NORMAL,,WEEK 16,8,1/12/2026,112
STUDY001,LB,STUDY001-SUBJ0011,74,L00074,PLT,Platelet Count,HEMATOLOGY,323.02,10^9/L,150,450,323.02,323.02,10^9/L,150,450,NORMAL,,WEEK 16,8,1/12/2026,112
STUDY001,LB,STUDY001-SUBJ0011,75,L00075,GLUC,Glucose,CHEMISTRY,70.24,mg/dL,70,100,70.24,70.24,mg/dL,70,100,NORMAL,,WEEK 16,8,1/12/2026,112
STUDY001,LB,STUDY001-SUBJ0011,76,L00076,BUN,Blood Urea Nitrogen,CHEMISTRY,13.08,mg/dL,7,20,13.08,13.08,mg/dL,7,20,NORMAL,,WEEK 16,8,1/12/2026,112
STUDY001,LB,STUDY001-SUBJ0011,77,L00077,CREAT,Creatinine,CHEMISTRY,0.8,mg/dL,0.6,1.2,0.8,0.8,mg/dL,0.6,1.2,NORMAL,,WEEK 16,8,1/12/2026,112
STUDY001,LB,STUDY001-SUBJ0011,78,L00078,BILI,Total Bilirubin,CHEMISTRY,0.79,mg/dL,0.1,1.2,0.79,0.79,mg/dL,0.1,1.2,NORMAL,,WEEK 16,8,1/12/2026,112
STUDY001,LB,STUDY001-SUBJ0011,79,L00079,ALP,Alkaline Phosphatase,CHEMISTRY,99.11,U/L,44,147,99.11,99.11,U/L,44,147,NORMAL,,WEEK 16,8,1/12/2026,112
STUDY001,LB,STUDY001-SUBJ0011,80,L00080,ALT,Alanine Aminotransferase,CHEMISTRY,37.51,U/L,7,56,37.51,37.51,U/L,7,56,NORMAL,,WEEK 16,8,1/12/2026,112
STUDY001,LB,STUDY001-SUBJ0011,81,L00081,HGB,Hemoglobin,HEMATOLOGY,14.74,g/dL,13.5,17.5,14.74,14.74,g/dL,13.5,17.5,NORMAL,,END OF TREATMENT,9,2/9/2026,140
STUDY001,LB,STUDY001-SUBJ0011,82,L00082,HCT,Hematocrit,HEMATOLOGY,48.44,%,41,51,48.44,48.44,%,41,51,NORMAL,,END OF TREATMENT,9,2/9/2026,140
STUDY001,LB,STUDY001-SUBJ0011,83,L00083,WBC,White Blood Cell Count,HEMATOLOGY,9.5,10^9/L,4.5,11,9.5,9.5,10^9/L,4.5,11,NORMAL,,END OF TREATMENT,9,2/9/2026,140
STUDY001,LB,STUDY001-SUBJ0011,84,L00084,PLT,Platelet Count,HEMATOLOGY,326.29,10^9/L,150,450,326.29,326.29,10^9/L,150,450,NORMAL,,END OF TREATMENT,9,2/9/2026,140
STUDY001,LB,STUDY001-SUBJ0011,85,L00085,GLUC,Glucose,CHEMISTRY,71.65,mg/dL,70,100,71.65,71.65,mg/dL,70,100,NORMAL,,END OF TREATMENT,9,2/9/2026,140
STUDY001,LB,STUDY001-SUBJ0011,86,L00086,BUN,Blood Urea Nitrogen,CHEMISTRY,12.77,mg/dL,7,20,12.77,12.77,mg/dL,7,20,NORMAL,,END OF TREATMENT,9,2/9/2026,140
STUDY001,LB,STUDY001-SUBJ0011,87,L00087,CREAT,Creatinine,CHEMISTRY,0.81,mg/dL,0.6,1.2,0.81,0.81,mg/dL,0.6,1.2,NORMAL,,END OF TREATMENT,9,2/9/2026,140
STUDY001,LB,STUDY001-SUBJ0011,88,L00088,BILI,Total Bilirubin,CHEMISTRY,0.82,mg/dL,0.1,1.2,0.82,0.82,mg/dL,0.1,1.2,NORMAL,,END OF TREATMENT,9,2/9/2026,140
STUDY001,LB,STUDY001-SUBJ0011,89,L00089,ALP,Alkaline Phosphatase,CHEMISTRY,98.33,U/L,44,147,98.33,98.33,U/L,44,147,NORMAL,,END OF TREATMENT,9,2/9/2026,140
STUDY001,LB,STUDY001-SUBJ0011,90,L00090,ALT,Alanine Aminotransferase,CHEMISTRY,40.02,U/L,7,56,40.02,40.02,U/L,7,56,NORMAL,,END OF TREATMENT,9,2/9/2026,140
STUDY001,LB,STUDY001-SUBJ0012,1,L00001,HGB,Hemoglobin,HEMATOLOGY,16.81,g/dL,13.5,17.5,16.81,16.81,g/dL,13.5,17.5,NORMAL,,SCREENING,1,4/30/2025,-14
STUDY001,LB,STUDY001-SUBJ0012,2,L00002,HCT,Hematocrit,HEMATOLOGY,43.9,%,41,51,43.9,43.9,%,41,51,NORMAL,,SCREENING,1,4/30/2025,-14
STUDY001,LB,STUDY001-SUBJ0012,3,L00003,WBC,White Blood Cell Count,HEMATOLOGY,8.53,10^9/L,4.5,11,8.53,8.53,10^9/L,4.5,11,NORMAL,,SCREENING,1,4/30/2025,-14
STUDY001,LB,STUDY001-SUBJ0012,4,L00004,PLT,Platelet Count,HEMATOLOGY,326.9,10^9/L,150,450,326.9,326.9,10^9/L,150,450,NORMAL,,SCREENING,1,4/30/2025,-14
STUDY001,LB,STUDY001-SUBJ0012,5,L00005,GLUC,Glucose,CHEMISTRY,106.33,mg/dL,70,100,106.33,106.33,mg/dL,70,100,HIGH,,SCREENING,1,4/30/2025,-14
STUDY001,LB,STUDY001-SUBJ0012,6,L00006,BUN,Blood Urea Nitrogen,CHEMISTRY,12.46,mg/dL,7,20,12.46,12.46,mg/dL,7,20,NORMAL,,SCREENING,1,4/30/2025,-14
STUDY001,LB,STUDY001-SUBJ0012,7,L00007,CREAT,Creatinine,CHEMISTRY,0.98,mg/dL,0.6,1.2,0.98,0.98,mg/dL,0.6,1.2,NORMAL,,SCREENING,1,4/30/2025,-14
STUDY001,LB,STUDY001-SUBJ0012,8,L00008,BILI,Total Bilirubin,CHEMISTRY,0.35,mg/dL,0.1,1.2,0.35,0.35,mg/dL,0.1,1.2,NORMAL,,SCREENING,1,4/30/2025,-14
STUDY001,LB,STUDY001-SUBJ0012,9,L00009,ALP,Alkaline Phosphatase,CHEMISTRY,80.75,U/L,44,147,80.75,80.75,U/L,44,147,NORMAL,,SCREENING,1,4/30/2025,-14
STUDY001,LB,STUDY001-SUBJ0012,10,L00010,ALT,Alanine Aminotransferase,CHEMISTRY,41.59,U/L,7,56,41.59,41.59,U/L,7,56,NORMAL,,SCREENING,1,4/30/2025,-14
STUDY001,LB,STUDY001-SUBJ0012,11,L00011,HGB,Hemoglobin,HEMATOLOGY,16.57,g/dL,13.5,17.5,16.57,16.57,g/dL,13.5,17.5,NORMAL,Y,BASELINE,2,5/14/2025,1
STUDY001,LB,STUDY001-SUBJ0012,12,L00012,HCT,Hematocrit,HEMATOLOGY,43.81,%,41,51,43.81,43.81,%,41,51,NORMAL,Y,BASELINE,2,5/14/2025,1
STUDY001,LB,STUDY001-SUBJ0012,13,L00013,WBC,White Blood Cell Count,HEMATOLOGY,8.45,10^9/L,4.5,11,8.45,8.45,10^9/L,4.5,11,NORMAL,Y,BASELINE,2,5/14/2025,1
STUDY001,LB,STUDY001-SUBJ0012,14,L00014,PLT,Platelet Count,HEMATOLOGY,327.15,10^9/L,150,450,327.15,327.15,10^9/L,150,450,NORMAL,Y,BASELINE,2,5/14/2025,1
STUDY001,LB,STUDY001-SUBJ0012,15,L00015,GLUC,Glucose,CHEMISTRY,107.36,mg/dL,70,100,107.36,107.36,mg/dL,70,100,HIGH,Y,BASELINE,2,5/14/2025,1
STUDY001,LB,STUDY001-SUBJ0012,16,L00016,BUN,Blood Urea Nitrogen,CHEMISTRY,12.19,mg/dL,7,20,12.19,12.19,mg/dL,7,20,NORMAL,Y,BASELINE,2,5/14/2025,1
STUDY001,LB,STUDY001-SUBJ0012,17,L00017,CREAT,Creatinine,CHEMISTRY,1.01,mg/dL,0.6,1.2,1.01,1.01,mg/dL,0.6,1.2,NORMAL,Y,BASELINE,2,5/14/2025,1
STUDY001,LB,STUDY001-SUBJ0012,18,L00018,BILI,Total Bilirubin,CHEMISTRY,0.34,mg/dL,0.1,1.2,0.34,0.34,mg/dL,0.1,1.2,NORMAL,Y,BASELINE,2,5/14/2025,1
STUDY001,LB,STUDY001-SUBJ0012,19,L00019,ALP,Alkaline Phosphatase,CHEMISTRY,85,U/L,44,147,85,85,U/L,44,147,NORMAL,Y,BASELINE,2,5/14/2025,1
STUDY001,LB,STUDY001-SUBJ0012,20,L00020,ALT,Alanine Aminotransferase,CHEMISTRY,43.93,U/L,7,56,43.93,43.93,U/L,7,56,NORMAL,Y,BASELINE,2,5/14/2025,1
STUDY001,LB,STUDY001-SUBJ0012,21,L00021,HGB,Hemoglobin,HEMATOLOGY,16.83,g/dL,13.5,17.5,16.83,16.83,g/dL,13.5,17.5,NORMAL,,WEEK 1,3,5/20/2025,7
STUDY001,LB,STUDY001-SUBJ0012,22,L00022,HCT,Hematocrit,HEMATOLOGY,44.13,%,41,51,44.13,44.13,%,41,51,NORMAL,,WEEK 1,3,5/20/2025,7
STUDY001,LB,STUDY001-SUBJ0012,23,L00023,WBC,White Blood Cell Count,HEMATOLOGY,8.14,10^9/L,4.5,11,8.14,8.14,10^9/L,4.5,11,NORMAL,,WEEK 1,3,5/20/2025,7
STUDY001,LB,STUDY001-SUBJ0012,24,L00024,PLT,Platelet Count,HEMATOLOGY,330.56,10^9/L,150,450,330.56,330.56,10^9/L,150,450,NORMAL,,WEEK 1,3,5/20/2025,7
STUDY001,LB,STUDY001-SUBJ0012,25,L00025,GLUC,Glucose,CHEMISTRY,104.76,mg/dL,70,100,104.76,104.76,mg/dL,70,100,HIGH,,WEEK 1,3,5/20/2025,7
STUDY001,LB,STUDY001-SUBJ0012,26,L00026,BUN,Blood Urea Nitrogen,CHEMISTRY,12.38,mg/dL,7,20,12.38,12.38,mg/dL,7,20,NORMAL,,WEEK 1,3,5/20/2025,7
STUDY001,LB,STUDY001-SUBJ0012,27,L00027,CREAT,Creatinine,CHEMISTRY,1.02,mg/dL,0.6,1.2,1.02,1.02,mg/dL,0.6,1.2,NORMAL,,WEEK 1,3,5/20/2025,7
STUDY001,LB,STUDY001-SUBJ0012,28,L00028,BILI,Total Bilirubin,CHEMISTRY,0.35,mg/dL,0.1,1.2,0.35,0.35,mg/dL,0.1,1.2,NORMAL,,WEEK 1,3,5/20/2025,7
STUDY001,LB,STUDY001-SUBJ0012,29,L00029,ALP,Alkaline Phosphatase,CHEMISTRY,80.75,U/L,44,147,80.75,80.75,U/L,44,147,NORMAL,,WEEK 1,3,5/20/2025,7
STUDY001,LB,STUDY001-SUBJ0012,30,L00030,ALT,Alanine Aminotransferase,CHEMISTRY,42.33,U/L,7,56,42.33,42.33,U/L,7,56,NORMAL,,WEEK 1,3,5/20/2025,7
STUDY001,LB,STUDY001-SUBJ0012,31,L00031,HGB,Hemoglobin,HEMATOLOGY,16.77,g/dL,13.5,17.5,16.77,16.77,g/dL,13.5,17.5,NORMAL,,WEEK 2,4,5/27/2025,14
STUDY001,LB,STUDY001-SUBJ0012,32,L00032,HCT,Hematocrit,HEMATOLOGY,44.23,%,41,51,44.23,44.23,%,41,51,NORMAL,,WEEK 2,4,5/27/2025,14
STUDY001,LB,STUDY001-SUBJ0012,33,L00033,WBC,White Blood Cell Count,HEMATOLOGY,8.45,10^9/L,4.5,11,8.45,8.45,10^9/L,4.5,11,NORMAL,,WEEK 2,4,5/27/2025,14
STUDY001,LB,STUDY001-SUBJ0012,34,L00034,PLT,Platelet Count,HEMATOLOGY,330.96,10^9/L,150,450,330.96,330.96,10^9/L,150,450,NORMAL,,WEEK 2,4,5/27/2025,14
STUDY001,LB,STUDY001-SUBJ0012,35,L00035,GLUC,Glucose,CHEMISTRY,106.31,mg/dL,70,100,106.31,106.31,mg/dL,70,100,HIGH,,WEEK 2,4,5/27/2025,14
STUDY001,LB,STUDY001-SUBJ0012,36,L00036,BUN,Blood Urea Nitrogen,CHEMISTRY,12.96,mg/dL,7,20,12.96,12.96,mg/dL,7,20,NORMAL,,WEEK 2,4,5/27/2025,14
STUDY001,LB,STUDY001-SUBJ0012,37,L00037,CREAT,Creatinine,CHEMISTRY,0.98,mg/dL,0.6,1.2,0.98,0.98,mg/dL,0.6,1.2,NORMAL,,WEEK 2,4,5/27/2025,14
STUDY001,LB,STUDY001-SUBJ0012,38,L00038,BILI,Total Bilirubin,CHEMISTRY,0.32,mg/dL,0.1,1.2,0.32,0.32,mg/dL,0.1,1.2,NORMAL,,WEEK 2,4,5/27/2025,14
STUDY001,LB,STUDY001-SUBJ0012,39,L00039,ALP,Alkaline Phosphatase,CHEMISTRY,80.6,U/L,44,147,80.6,80.6,U/L,44,147,NORMAL,,WEEK 2,4,5/27/2025,14
STUDY001,LB,STUDY001-SUBJ0012,40,L00040,ALT,Alanine Aminotransferase,CHEMISTRY,42.02,U/L,7,56,42.02,42.02,U/L,7,56,NORMAL,,WEEK 2,4,5/27/2025,14
STUDY001,LB,STUDY001-SUBJ0012,41,L00041,HGB,Hemoglobin,HEMATOLOGY,16.74,g/dL,13.5,17.5,16.74,16.74,g/dL,13.5,17.5,NORMAL,,WEEK 4,5,6/10/2025,28
STUDY001,LB,STUDY001-SUBJ0012,42,L00042,HCT,Hematocrit,HEMATOLOGY,44,%,41,51,44,44,%,41,51,NORMAL,,WEEK 4,5,6/10/2025,28
STUDY001,LB,STUDY001-SUBJ0012,43,L00043,WBC,White Blood Cell Count,HEMATOLOGY,8.65,10^9/L,4.5,11,8.65,8.65,10^9/L,4.5,11,NORMAL,,WEEK 4,5,6/10/2025,28
STUDY001,LB,STUDY001-SUBJ0012,44,L00044,PLT,Platelet Count,HEMATOLOGY,331.73,10^9/L,150,450,331.73,331.73,10^9/L,150,450,NORMAL,,WEEK 4,5,6/10/2025,28
STUDY001,LB,STUDY001-SUBJ0012,45,L00045,GLUC,Glucose,CHEMISTRY,105.63,mg/dL,70,100,105.63,105.63,mg/dL,70,100,HIGH,,WEEK 4,5,6/10/2025,28
STUDY001,LB,STUDY001-SUBJ0012,46,L00046,BUN,Blood Urea Nitrogen,CHEMISTRY,12.35,mg/dL,7,20,12.35,12.35,mg/dL,7,20,NORMAL,,WEEK 4,5,6/10/2025,28
STUDY001,LB,STUDY001-SUBJ0012,47,L00047,CREAT,Creatinine,CHEMISTRY,0.99,mg/dL,0.6,1.2,0.99,0.99,mg/dL,0.6,1.2,NORMAL,,WEEK 4,5,6/10/2025,28
STUDY001,LB,STUDY001-SUBJ0012,48,L00048,BILI,Total Bilirubin,CHEMISTRY,0.32,mg/dL,0.1,1.2,0.32,0.32,mg/dL,0.1,1.2,NORMAL,,WEEK 4,5,6/10/2025,28
STUDY001,LB,STUDY001-SUBJ0012,49,L00049,ALP,Alkaline Phosphatase,CHEMISTRY,82.42,U/L,44,147,82.42,82.42,U/L,44,147,NORMAL,,WEEK 4,5,6/10/2025,28
STUDY001,LB,STUDY001-SUBJ0012,50,L00050,ALT,Alanine Aminotransferase,CHEMISTRY,43.12,U/L,7,56,43.12,43.12,U/L,7,56,NORMAL,,WEEK 4,5,6/10/2025,28
STUDY001,LB,STUDY001-SUBJ0012,51,L00051,HGB,Hemoglobin,HEMATOLOGY,16.64,g/dL,13.5,17.5,16.64,16.64,g/dL,13.5,17.5,NORMAL,,WEEK 8,6,7/8/2025,56
STUDY001,LB,STUDY001-SUBJ0012,52,L00052,HCT,Hematocrit,HEMATOLOGY,44.15,%,41,51,44.15,44.15,%,41,51,NORMAL,,WEEK 8,6,7/8/2025,56
STUDY001,LB,STUDY001-SUBJ0012,53,L00053,WBC,White Blood Cell Count,HEMATOLOGY,8.37,10^9/L,4.5,11,8.37,8.37,10^9/L,4.5,11,NORMAL,,WEEK 8,6,7/8/2025,56
STUDY001,LB,STUDY001-SUBJ0012,54,L00054,PLT,Platelet Count,HEMATOLOGY,326.96,10^9/L,150,450,326.96,326.96,10^9/L,150,450,NORMAL,,WEEK 8,6,7/8/2025,56
STUDY001,LB,STUDY001-SUBJ0012,55,L00055,GLUC,Glucose,CHEMISTRY,103.9,mg/dL,70,100,103.9,103.9,mg/dL,70,100,HIGH,,WEEK 8,6,7/8/2025,56
STUDY001,LB,STUDY001-SUBJ0012,56,L00056,BUN,Blood Urea Nitrogen,CHEMISTRY,12.4,mg/dL,7,20,12.4,12.4,mg/dL,7,20,NORMAL,,WEEK 8,6,7/8/2025,56
STUDY001,LB,STUDY001-SUBJ0012,57,L00057,CREAT,Creatinine,CHEMISTRY,1,mg/dL,0.6,1.2,1,1,mg/dL,0.6,1.2,NORMAL,,WEEK 8,6,7/8/2025,56
STUDY001,LB,STUDY001-SUBJ0012,58,L00058,BILI,Total Bilirubin,CHEMISTRY,0.34,mg/dL,0.1,1.2,0.34,0.34,mg/dL,0.1,1.2,NORMAL,,WEEK 8,6,7/8/2025,56
STUDY001,LB,STUDY001-SUBJ0012,59,L00059,ALP,Alkaline Phosphatase,CHEMISTRY,79.53,U/L,44,147,79.53,79.53,U/L,44,147,NORMAL,,WEEK 8,6,7/8/2025,56
STUDY001,LB,STUDY001-SUBJ0012,60,L00060,ALT,Alanine Aminotransferase,CHEMISTRY,44.38,U/L,7,56,44.38,44.38,U/L,7,56,NORMAL,,WEEK 8,6,7/8/2025,56
STUDY001,LB,STUDY001-SUBJ0012,61,L00061,HGB,Hemoglobin,HEMATOLOGY,16.76,g/dL,13.5,17.5,16.76,16.76,g/dL,13.5,17.5,NORMAL,,WEEK 12,7,8/5/2025,84
STUDY001,LB,STUDY001-SUBJ0012,62,L00062,HCT,Hematocrit,HEMATOLOGY,43.96,%,41,51,43.96,43.96,%,41,51,NORMAL,,WEEK 12,7,8/5/2025,84
STUDY001,LB,STUDY001-SUBJ0012,63,L00063,WBC,White Blood Cell Count,HEMATOLOGY,8.71,10^9/L,4.5,11,8.71,8.71,10^9/L,4.5,11,NORMAL,,WEEK 12,7,8/5/2025,84
STUDY001,LB,STUDY001-SUBJ0012,64,L00064,PLT,Platelet Count,HEMATOLOGY,332.64,10^9/L,150,450,332.64,332.64,10^9/L,150,450,NORMAL,,WEEK 12,7,8/5/2025,84
STUDY001,LB,STUDY001-SUBJ0012,65,L00065,GLUC,Glucose,CHEMISTRY,104.78,mg/dL,70,100,104.78,104.78,mg/dL,70,100,HIGH,,WEEK 12,7,8/5/2025,84
STUDY001,LB,STUDY001-SUBJ0012,66,L00066,BUN,Blood Urea Nitrogen,CHEMISTRY,12.62,mg/dL,7,20,12.62,12.62,mg/dL,7,20,NORMAL,,WEEK 12,7,8/5/2025,84
STUDY001,LB,STUDY001-SUBJ0012,67,L00067,CREAT,Creatinine,CHEMISTRY,0.98,mg/dL,0.6,1.2,0.98,0.98,mg/dL,0.6,1.2,NORMAL,,WEEK 12,7,8/5/2025,84
STUDY001,LB,STUDY001-SUBJ0012,68,L00068,BILI,Total Bilirubin,CHEMISTRY,0.37,mg/dL,0.1,1.2,0.37,0.37,mg/dL,0.1,1.2,NORMAL,,WEEK 12,7,8/5/2025,84
STUDY001,LB,STUDY001-SUBJ0012,69,L00069,ALP,Alkaline Phosphatase,CHEMISTRY,81.61,U/L,44,147,81.61,81.61,U/L,44,147,NORMAL,,WEEK 12,7,8/5/2025,84
STUDY001,LB,STUDY001-SUBJ0012,70,L00070,ALT,Alanine Aminotransferase,CHEMISTRY,44.93,U/L,7,56,44.93,44.93,U/L,7,56,NORMAL,,WEEK 12,7,8/5/2025,84
STUDY001,LB,STUDY001-SUBJ0012,71,L00071,HGB,Hemoglobin,HEMATOLOGY,16.79,g/dL,13.5,17.5,16.79,16.79,g/dL,13.5,17.5,NORMAL,,WEEK 16,8,9/2/2025,112
STUDY001,LB,STUDY001-SUBJ0012,72,L00072,HCT,Hematocrit,HEMATOLOGY,44.04,%,41,51,44.04,44.04,%,41,51,NORMAL,,WEEK 16,8,9/2/2025,112
STUDY001,LB,STUDY001-SUBJ0012,73,L00073,WBC,White Blood Cell Count,HEMATOLOGY,8.28,10^9/L,4.5,11,8.28,8.28,10^9/L,4.5,11,NORMAL,,WEEK 16,8,9/2/2025,112
STUDY001,LB,STUDY001-SUBJ0012,74,L00074,PLT,Platelet Count,HEMATOLOGY,332.78,10^9/L,150,450,332.78,332.78,10^9/L,150,450,NORMAL,,WEEK 16,8,9/2/2025,112
STUDY001,LB,STUDY001-SUBJ0012,75,L00075,GLUC,Glucose,CHEMISTRY,104.8,mg/dL,70,100,104.8,104.8,mg/dL,70,100,HIGH,,WEEK 16,8,9/2/2025,112
STUDY001,LB,STUDY001-SUBJ0012,76,L00076,BUN,Blood Urea Nitrogen,CHEMISTRY,12.5,mg/dL,7,20,12.5,12.5,mg/dL,7,20,NORMAL,,WEEK 16,8,9/2/2025,112
STUDY001,LB,STUDY001-SUBJ0012,77,L00077,CREAT,Creatinine,CHEMISTRY,1.01,mg/dL,0.6,1.2,1.01,1.01,mg/dL,0.6,1.2,NORMAL,,WEEK 16,8,9/2/2025,112
STUDY001,LB,STUDY001-SUBJ0012,78,L00078,BILI,Total Bilirubin,CHEMISTRY,0.32,mg/dL,0.1,1.2,0.32,0.32,mg/dL,0.1,1.2,NORMAL,,WEEK 16,8,9/2/2025,112
STUDY001,LB,STUDY001-SUBJ0012,79,L00079,ALP,Alkaline Phosphatase,CHEMISTRY,82.14,U/L,44,147,82.14,82.14,U/L,44,147,NORMAL,,WEEK 16,8,9/2/2025,112
STUDY001,LB,STUDY001-SUBJ0012,80,L00080,ALT,Alanine Aminotransferase,CHEMISTRY,43.59,U/L,7,56,43.59,43.59,U/L,7,56,NORMAL,,WEEK 16,8,9/2/2025,112
STUDY001,LB,STUDY001-SUBJ0012,81,L00081,HGB,Hemoglobin,HEMATOLOGY,16.83,g/dL,13.5,17.5,16.83,16.83,g/dL,13.5,17.5,NORMAL,,END OF TREATMENT,9,9/30/2025,140
STUDY001,LB,STUDY001-SUBJ0012,82,L00082,HCT,Hematocrit,HEMATOLOGY,44.11,%,41,51,44.11,44.11,%,41,51,NORMAL,,END OF TREATMENT,9,9/30/2025,140
STUDY001,LB,STUDY001-SUBJ0012,83,L00083,WBC,White Blood Cell Count,HEMATOLOGY,8.25,10^9/L,4.5,11,8.25,8.25,10^9/L,4.5,11,NORMAL,,END OF TREATMENT,9,9/30/2025,140
STUDY001,LB,STUDY001-SUBJ0012,84,L00084,PLT,Platelet Count,HEMATOLOGY,330.91,10^9/L,150,450,330.91,330.91,10^9/L,150,450,NORMAL,,END OF TREATMENT,9,9/30/2025,140
STUDY001,LB,STUDY001-SUBJ0012,85,L00085,GLUC,Glucose,CHEMISTRY,104.64,mg/dL,70,100,104.64,104.64,mg/dL,70,100,HIGH,,END OF TREATMENT,9,9/30/2025,140
STUDY001,LB,STUDY001-SUBJ0012,86,L00086,BUN,Blood Urea Nitrogen,CHEMISTRY,12.48,mg/dL,7,20,12.48,12.48,mg/dL,7,20,NORMAL,,END OF TREATMENT,9,9/30/2025,140
STUDY001,LB,STUDY001-SUBJ0012,87,L00087,CREAT,Creatinine,CHEMISTRY,0.96,mg/dL,0.6,1.2,0.96,0.96,mg/dL,0.6,1.2,NORMAL,,END OF TREATMENT,9,9/30/2025,140
STUDY001,LB,STUDY001-SUBJ0012,88,L00088,BILI,Total Bilirubin,CHEMISTRY,0.32,mg/dL,0.1,1.2,0.32,0.32,mg/dL,0.1,1.2,NORMAL,,END OF TREATMENT,9,9/30/2025,140
STUDY001,LB,STUDY001-SUBJ0012,89,L00089,ALP,Alkaline Phosphatase,CHEMISTRY,85.38,U/L,44,147,85.38,85.38,U/L,44,147,NORMAL,,END OF TREATMENT,9,9/30/2025,140
STUDY001,LB,STUDY001-SUBJ0012,90,L00090,ALT,Alanine Aminotransferase,CHEMISTRY,42.26,U/L,7,56,42.26,42.26,U/L,7,56,NORMAL,,END OF TREATMENT,9,9/30/2025,140
STUDY001,LB,STUDY001-SUBJ0013,1,L00001,HGB,Hemoglobin,HEMATOLOGY,15.15,g/dL,13.5,17.5,15.15,15.15,g/dL,13.5,17.5,NORMAL,,SCREENING,1,5/26/2025,-14
STUDY001,LB,STUDY001-SUBJ0013,2,L00002,HCT,Hematocrit,HEMATOLOGY,47.2,%,41,51,47.2,47.2,%,41,51,NORMAL,,SCREENING,1,5/26/2025,-14
STUDY001,LB,STUDY001-SUBJ0013,3,L00003,WBC,White Blood Cell Count,HEMATOLOGY,7.25,10^9/L,4.5,11,7.25,7.25,10^9/L,4.5,11,NORMAL,,SCREENING,1,5/26/2025,-14
STUDY001,LB,STUDY001-SUBJ0013,4,L00004,PLT,Platelet Count,HEMATOLOGY,182.66,10^9/L,150,450,182.66,182.66,10^9/L,150,450,NORMAL,,SCREENING,1,5/26/2025,-14
STUDY001,LB,STUDY001-SUBJ0013,5,L00005,GLUC,Glucose,CHEMISTRY,83.58,mg/dL,70,100,83.58,83.58,mg/dL,70,100,NORMAL,,SCREENING,1,5/26/2025,-14
STUDY001,LB,STUDY001-SUBJ0013,6,L00006,BUN,Blood Urea Nitrogen,CHEMISTRY,15.91,mg/dL,7,20,15.91,15.91,mg/dL,7,20,NORMAL,,SCREENING,1,5/26/2025,-14
STUDY001,LB,STUDY001-SUBJ0013,7,L00007,CREAT,Creatinine,CHEMISTRY,1.08,mg/dL,0.6,1.2,1.08,1.08,mg/dL,0.6,1.2,NORMAL,,SCREENING,1,5/26/2025,-14
STUDY001,LB,STUDY001-SUBJ0013,8,L00008,BILI,Total Bilirubin,CHEMISTRY,0.87,mg/dL,0.1,1.2,0.87,0.87,mg/dL,0.1,1.2,NORMAL,,SCREENING,1,5/26/2025,-14
STUDY001,LB,STUDY001-SUBJ0013,9,L00009,ALP,Alkaline Phosphatase,CHEMISTRY,87.82,U/L,44,147,87.82,87.82,U/L,44,147,NORMAL,,SCREENING,1,5/26/2025,-14
STUDY001,LB,STUDY001-SUBJ0013,10,L00010,ALT,Alanine Aminotransferase,CHEMISTRY,52.25,U/L,7,56,52.25,52.25,U/L,7,56,NORMAL,,SCREENING,1,5/26/2025,-14
STUDY001,LB,STUDY001-SUBJ0013,11,L00011,HGB,Hemoglobin,HEMATOLOGY,15.14,g/dL,13.5,17.5,15.14,15.14,g/dL,13.5,17.5,NORMAL,Y,BASELINE,2,6/9/2025,1
STUDY001,LB,STUDY001-SUBJ0013,12,L00012,HCT,Hematocrit,HEMATOLOGY,47.05,%,41,51,47.05,47.05,%,41,51,NORMAL,Y,BASELINE,2,6/9/2025,1
STUDY001,LB,STUDY001-SUBJ0013,13,L00013,WBC,White Blood Cell Count,HEMATOLOGY,7.23,10^9/L,4.5,11,7.23,7.23,10^9/L,4.5,11,NORMAL,Y,BASELINE,2,6/9/2025,1
STUDY001,LB,STUDY001-SUBJ0013,14,L00014,PLT,Platelet Count,HEMATOLOGY,185.34,10^9/L,150,450,185.34,185.34,10^9/L,150,450,NORMAL,Y,BASELINE,2,6/9/2025,1
STUDY001,LB,STUDY001-SUBJ0013,15,L00015,GLUC,Glucose,CHEMISTRY,79.96,mg/dL,70,100,79.96,79.96,mg/dL,70,100,NORMAL,Y,BASELINE,2,6/9/2025,1
STUDY001,LB,STUDY001-SUBJ0013,16,L00016,BUN,Blood Urea Nitrogen,CHEMISTRY,15.62,mg/dL,7,20,15.62,15.62,mg/dL,7,20,NORMAL,Y,BASELINE,2,6/9/2025,1
STUDY001,LB,STUDY001-SUBJ0013,17,L00017,CREAT,Creatinine,CHEMISTRY,1.07,mg/dL,0.6,1.2,1.07,1.07,mg/dL,0.6,1.2,NORMAL,Y,BASELINE,2,6/9/2025,1
STUDY001,LB,STUDY001-SUBJ0013,18,L00018,BILI,Total Bilirubin,CHEMISTRY,0.9,mg/dL,0.1,1.2,0.9,0.9,mg/dL,0.1,1.2,NORMAL,Y,BASELINE,2,6/9/2025,1
STUDY001,LB,STUDY001-SUBJ0013,19,L00019,ALP,Alkaline Phosphatase,CHEMISTRY,87.12,U/L,44,147,87.12,87.12,U/L,44,147,NORMAL,Y,BASELINE,2,6/9/2025,1
STUDY001,LB,STUDY001-SUBJ0013,20,L00020,ALT,Alanine Aminotransferase,CHEMISTRY,50.89,U/L,7,56,50.89,50.89,U/L,7,56,NORMAL,Y,BASELINE,2,6/9/2025,1
STUDY001,LB,STUDY001-SUBJ0013,21,L00021,HGB,Hemoglobin,HEMATOLOGY,15.02,g/dL,13.5,17.5,15.02,15.02,g/dL,13.5,17.5,NORMAL,,WEEK 1,3,6/15/2025,7
STUDY001,LB,STUDY001-SUBJ0013,22,L00022,HCT,Hematocrit,HEMATOLOGY,47.11,%,41,51,47.11,47.11,%,41,51,NORMAL,,WEEK 1,3,6/15/2025,7
STUDY001,LB,STUDY001-SUBJ0013,23,L00023,WBC,White Blood Cell Count,HEMATOLOGY,6.98,10^9/L,4.5,11,6.98,6.98,10^9/L,4.5,11,NORMAL,,WEEK 1,3,6/15/2025,7
STUDY001,LB,STUDY001-SUBJ0013,24,L00024,PLT,Platelet Count,HEMATOLOGY,189.54,10^9/L,150,450,189.54,189.54,10^9/L,150,450,NORMAL,,WEEK 1,3,6/15/2025,7
STUDY001,LB,STUDY001-SUBJ0013,25,L00025,GLUC,Glucose,CHEMISTRY,80.54,mg/dL,70,100,80.54,80.54,mg/dL,70,100,NORMAL,,WEEK 1,3,6/15/2025,7
STUDY001,LB,STUDY001-SUBJ0013,26,L00026,BUN,Blood Urea Nitrogen,CHEMISTRY,16.03,mg/dL,7,20,16.03,16.03,mg/dL,7,20,NORMAL,,WEEK 1,3,6/15/2025,7
STUDY001,LB,STUDY001-SUBJ0013,27,L00027,CREAT,Creatinine,CHEMISTRY,1.05,mg/dL,0.6,1.2,1.05,1.05,mg/dL,0.6,1.2,NORMAL,,WEEK 1,3,6/15/2025,7
STUDY001,LB,STUDY001-SUBJ0013,28,L00028,BILI,Total Bilirubin,CHEMISTRY,0.9,mg/dL,0.1,1.2,0.9,0.9,mg/dL,0.1,1.2,NORMAL,,WEEK 1,3,6/15/2025,7
STUDY001,LB,STUDY001-SUBJ0013,29,L00029,ALP,Alkaline Phosphatase,CHEMISTRY,84.63,U/L,44,147,84.63,84.63,U/L,44,147,NORMAL,,WEEK 1,3,6/15/2025,7
STUDY001,LB,STUDY001-SUBJ0013,30,L00030,ALT,Alanine Aminotransferase,CHEMISTRY,51.79,U/L,7,56,51.79,51.79,U/L,7,56,NORMAL,,WEEK 1,3,6/15/2025,7
STUDY001,LB,STUDY001-SUBJ0013,31,L00031,HGB,Hemoglobin,HEMATOLOGY,15.19,g/dL,13.5,17.5,15.19,15.19,g/dL,13.5,17.5,NORMAL,,WEEK 2,4,6/22/2025,14
STUDY001,LB,STUDY001-SUBJ0013,32,L00032,HCT,Hematocrit,HEMATOLOGY,46.98,%,41,51,46.98,46.98,%,41,51,NORMAL,,WEEK 2,4,6/22/2025,14
STUDY001,LB,STUDY001-SUBJ0013,33,L00033,WBC,White Blood Cell Count,HEMATOLOGY,7.3,10^9/L,4.5,11,7.3,7.3,10^9/L,4.5,11,NORMAL,,WEEK 2,4,6/22/2025,14
STUDY001,LB,STUDY001-SUBJ0013,34,L00034,PLT,Platelet Count,HEMATOLOGY,182.65,10^9/L,150,450,182.65,182.65,10^9/L,150,450,NORMAL,,WEEK 2,4,6/22/2025,14
STUDY001,LB,STUDY001-SUBJ0013,35,L00035,GLUC,Glucose,CHEMISTRY,81.14,mg/dL,70,100,81.14,81.14,mg/dL,70,100,NORMAL,,WEEK 2,4,6/22/2025,14
STUDY001,LB,STUDY001-SUBJ0013,36,L00036,BUN,Blood Urea Nitrogen,CHEMISTRY,16.44,mg/dL,7,20,16.44,16.44,mg/dL,7,20,NORMAL,,WEEK 2,4,6/22/2025,14
STUDY001,LB,STUDY001-SUBJ0013,37,L00037,CREAT,Creatinine,CHEMISTRY,1.09,mg/dL,0.6,1.2,1.09,1.09,mg/dL,0.6,1.2,NORMAL,,WEEK 2,4,6/22/2025,14
STUDY001,LB,STUDY001-SUBJ0013,38,L00038,BILI,Total Bilirubin,CHEMISTRY,0.87,mg/dL,0.1,1.2,0.87,0.87,mg/dL,0.1,1.2,NORMAL,,WEEK 2,4,6/22/2025,14
STUDY001,LB,STUDY001-SUBJ0013,39,L00039,ALP,Alkaline Phosphatase,CHEMISTRY,86.32,U/L,44,147,86.32,86.32,U/L,44,147,NORMAL,,WEEK 2,4,6/22/2025,14
STUDY001,LB,STUDY001-SUBJ0013,40,L00040,ALT,Alanine Aminotransferase,CHEMISTRY,53.32,U/L,7,56,53.32,53.32,U/L,7,56,NORMAL,,WEEK 2,4,6/22/2025,14
STUDY001,LB,STUDY001-SUBJ0013,41,L00041,HGB,Hemoglobin,HEMATOLOGY,15.21,g/dL,13.5,17.5,15.21,15.21,g/dL,13.5,17.5,NORMAL,,WEEK 4,5,7/6/2025,28
STUDY001,LB,STUDY001-SUBJ0013,42,L00042,HCT,Hematocrit,HEMATOLOGY,46.82,%,41,51,46.82,46.82,%,41,51,NORMAL,,WEEK 4,5,7/6/2025,28
STUDY001,LB,STUDY001-SUBJ0013,43,L00043,WBC,White Blood Cell Count,HEMATOLOGY,7.4,10^9/L,4.5,11,7.4,7.4,10^9/L,4.5,11,NORMAL,,WEEK 4,5,7/6/2025,28
STUDY001,LB,STUDY001-SUBJ0013,44,L00044,PLT,Platelet Count,HEMATOLOGY,181.41,10^9/L,150,450,181.41,181.41,10^9/L,150,450,NORMAL,,WEEK 4,5,7/6/2025,28
STUDY001,LB,STUDY001-SUBJ0013,45,L00045,GLUC,Glucose,CHEMISTRY,81.58,mg/dL,70,100,81.58,81.58,mg/dL,70,100,NORMAL,,WEEK 4,5,7/6/2025,28
STUDY001,LB,STUDY001-SUBJ0013,46,L00046,BUN,Blood Urea Nitrogen,CHEMISTRY,15.97,mg/dL,7,20,15.97,15.97,mg/dL,7,20,NORMAL,,WEEK 4,5,7/6/2025,28
STUDY001,LB,STUDY001-SUBJ0013,47,L00047,CREAT,Creatinine,CHEMISTRY,1.05,mg/dL,0.6,1.2,1.05,1.05,mg/dL,0.6,1.2,NORMAL,,WEEK 4,5,7/6/2025,28
STUDY001,LB,STUDY001-SUBJ0013,48,L00048,BILI,Total Bilirubin,CHEMISTRY,0.89,mg/dL,0.1,1.2,0.89,0.89,mg/dL,0.1,1.2,NORMAL,,WEEK 4,5,7/6/2025,28
STUDY001,LB,STUDY001-SUBJ0013,49,L00049,ALP,Alkaline Phosphatase,CHEMISTRY,83.82,U/L,44,147,83.82,83.82,U/L,44,147,NORMAL,,WEEK 4,5,7/6/2025,28
STUDY001,LB,STUDY001-SUBJ0013,50,L00050,ALT,Alanine Aminotransferase,CHEMISTRY,53.92,U/L,7,56,53.92,53.92,U/L,7,56,NORMAL,,WEEK 4,5,7/6/2025,28
STUDY001,LB,STUDY001-SUBJ0013,51,L00051,HGB,Hemoglobin,HEMATOLOGY,15.08,g/dL,13.5,17.5,15.08,15.08,g/dL,13.5,17.5,NORMAL,,WEEK 8,6,8/3/2025,56
STUDY001,LB,STUDY001-SUBJ0013,52,L00052,HCT,Hematocrit,HEMATOLOGY,46.96,%,41,51,46.96,46.96,%,41,51,NORMAL,,WEEK 8,6,8/3/2025,56
STUDY001,LB,STUDY001-SUBJ0013,53,L00053,WBC,White Blood Cell Count,HEMATOLOGY,7.38,10^9/L,4.5,11,7.38,7.38,10^9/L,4.5,11,NORMAL,,WEEK 8,6,8/3/2025,56
STUDY001,LB,STUDY001-SUBJ0013,54,L00054,PLT,Platelet Count,HEMATOLOGY,191,10^9/L,150,450,191,191,10^9/L,150,450,NORMAL,,WEEK 8,6,8/3/2025,56
STUDY001,LB,STUDY001-SUBJ0013,55,L00055,GLUC,Glucose,CHEMISTRY,81.26,mg/dL,70,100,81.26,81.26,mg/dL,70,100,NORMAL,,WEEK 8,6,8/3/2025,56
STUDY001,LB,STUDY001-SUBJ0013,56,L00056,BUN,Blood Urea Nitrogen,CHEMISTRY,15.86,mg/dL,7,20,15.86,15.86,mg/dL,7,20,NORMAL,,WEEK 8,6,8/3/2025,56
STUDY001,LB,STUDY001-SUBJ0013,57,L00057,CREAT,Creatinine,CHEMISTRY,1.08,mg/dL,0.6,1.2,1.08,1.08,mg/dL,0.6,1.2,NORMAL,,WEEK 8,6,8/3/2025,56
STUDY001,LB,STUDY001-SUBJ0013,58,L00058,BILI,Total Bilirubin,CHEMISTRY,0.88,mg/dL,0.1,1.2,0.88,0.88,mg/dL,0.1,1.2,NORMAL,,WEEK 8,6,8/3/2025,56
STUDY001,LB,STUDY001-SUBJ0013,59,L00059,ALP,Alkaline Phosphatase,CHEMISTRY,85.15,U/L,44,147,85.15,85.15,U/L,44,147,NORMAL,,WEEK 8,6,8/3/2025,56
STUDY001,LB,STUDY001-SUBJ0013,60,L00060,ALT,Alanine Aminotransferase,CHEMISTRY,51.94,U/L,7,56,51.94,51.94,U/L,7,56,NORMAL,,WEEK 8,6,8/3/2025,56
STUDY001,LB,STUDY001-SUBJ0013,61,L00061,HGB,Hemoglobin,HEMATOLOGY,15.12,g/dL,13.5,17.5,15.12,15.12,g/dL,13.5,17.5,NORMAL,,WEEK 12,7,8/31/2025,84
STUDY001,LB,STUDY001-SUBJ0013,62,L00062,HCT,Hematocrit,HEMATOLOGY,46.65,%,41,51,46.65,46.65,%,41,51,NORMAL,,WEEK 12,7,8/31/2025,84
STUDY001,LB,STUDY001-SUBJ0013,63,L00063,WBC,White Blood Cell Count,HEMATOLOGY,7.34,10^9/L,4.5,11,7.34,7.34,10^9/L,4.5,11,NORMAL,,WEEK 12,7,8/31/2025,84
STUDY001,LB,STUDY001-SUBJ0013,64,L00064,PLT,Platelet Count,HEMATOLOGY,188.82,10^9/L,150,450,188.82,188.82,10^9/L,150,450,NORMAL,,WEEK 12,7,8/31/2025,84
STUDY001,LB,STUDY001-SUBJ0013,65,L00065,GLUC,Glucose,CHEMISTRY,81.17,mg/dL,70,100,81.17,81.17,mg/dL,70,100,NORMAL,,WEEK 12,7,8/31/2025,84
STUDY001,LB,STUDY001-SUBJ0013,66,L00066,BUN,Blood Urea Nitrogen,CHEMISTRY,15.62,mg/dL,7,20,15.62,15.62,mg/dL,7,20,NORMAL,,WEEK 12,7,8/31/2025,84
STUDY001,LB,STUDY001-SUBJ0013,67,L00067,CREAT,Creatinine,CHEMISTRY,1.09,mg/dL,0.6,1.2,1.09,1.09,mg/dL,0.6,1.2,NORMAL,,WEEK 12,7,8/31/2025,84
STUDY001,LB,STUDY001-SUBJ0013,68,L00068,BILI,Total Bilirubin,CHEMISTRY,0.87,mg/dL,0.1,1.2,0.87,0.87,mg/dL,0.1,1.2,NORMAL,,WEEK 12,7,8/31/2025,84
STUDY001,LB,STUDY001-SUBJ0013,69,L00069,ALP,Alkaline Phosphatase,CHEMISTRY,84.76,U/L,44,147,84.76,84.76,U/L,44,147,NORMAL,,WEEK 12,7,8/31/2025,84
STUDY001,LB,STUDY001-SUBJ0013,70,L00070,ALT,Alanine Aminotransferase,CHEMISTRY,52.55,U/L,7,56,52.55,52.55,U/L,7,56,NORMAL,,WEEK 12,7,8/31/2025,84
STUDY001,LB,STUDY001-SUBJ0013,71,L00071,HGB,Hemoglobin,HEMATOLOGY,15.13,g/dL,13.5,17.5,15.13,15.13,g/dL,13.5,17.5,NORMAL,,WEEK 16,8,9/28/2025,112
STUDY001,LB,STUDY001-SUBJ0013,72,L00072,HCT,Hematocrit,HEMATOLOGY,47.19,%,41,51,47.19,47.19,%,41,51,NORMAL,,WEEK 16,8,9/28/2025,112
STUDY001,LB,STUDY001-SUBJ0013,73,L00073,WBC,White Blood Cell Count,HEMATOLOGY,7.6,10^9/L,4.5,11,7.6,7.6,10^9/L,4.5,11,NORMAL,,WEEK 16,8,9/28/2025,112
STUDY001,LB,STUDY001-SUBJ0013,74,L00074,PLT,Platelet Count,HEMATOLOGY,182.25,10^9/L,150,450,182.25,182.25,10^9/L,150,450,NORMAL,,WEEK 16,8,9/28/2025,112
STUDY001,LB,STUDY001-SUBJ0013,75,L00075,GLUC,Glucose,CHEMISTRY,80.4,mg/dL,70,100,80.4,80.4,mg/dL,70,100,NORMAL,,WEEK 16,8,9/28/2025,112
STUDY001,LB,STUDY001-SUBJ0013,76,L00076,BUN,Blood Urea Nitrogen,CHEMISTRY,16.03,mg/dL,7,20,16.03,16.03,mg/dL,7,20,NORMAL,,WEEK 16,8,9/28/2025,112
STUDY001,LB,STUDY001-SUBJ0013,77,L00077,CREAT,Creatinine,CHEMISTRY,1.08,mg/dL,0.6,1.2,1.08,1.08,mg/dL,0.6,1.2,NORMAL,,WEEK 16,8,9/28/2025,112
STUDY001,LB,STUDY001-SUBJ0013,78,L00078,BILI,Total Bilirubin,CHEMISTRY,0.9,mg/dL,0.1,1.2,0.9,0.9,mg/dL,0.1,1.2,NORMAL,,WEEK 16,8,9/28/2025,112
STUDY001,LB,STUDY001-SUBJ0013,79,L00079,ALP,Alkaline Phosphatase,CHEMISTRY,82.34,U/L,44,147,82.34,82.34,U/L,44,147,NORMAL,,WEEK 16,8,9/28/2025,112
STUDY001,LB,STUDY001-SUBJ0013,80,L00080,ALT,Alanine Aminotransferase,CHEMISTRY,53.81,U/L,7,56,53.81,53.81,U/L,7,56,NORMAL,,WEEK 16,8,9/28/2025,112
STUDY001,LB,STUDY001-SUBJ0013,81,L00081,HGB,Hemoglobin,HEMATOLOGY,15.09,g/dL,13.5,17.5,15.09,15.09,g/dL,13.5,17.5,NORMAL,,END OF TREATMENT,9,10/26/2025,140
STUDY001,LB,STUDY001-SUBJ0013,82,L00082,HCT,Hematocrit,HEMATOLOGY,46.85,%,41,51,46.85,46.85,%,41,51,NORMAL,,END OF TREATMENT,9,10/26/2025,140
STUDY001,LB,STUDY001-SUBJ0013,83,L00083,WBC,White Blood Cell Count,HEMATOLOGY,7.13,10^9/L,4.5,11,7.13,7.13,10^9/L,4.5,11,NORMAL,,END OF TREATMENT,9,10/26/2025,140
STUDY001,LB,STUDY001-SUBJ0013,84,L00084,PLT,Platelet Count,HEMATOLOGY,194.96,10^9/L,150,450,194.96,194.96,10^9/L,150,450,NORMAL,,END OF TREATMENT,9,10/26/2025,140
STUDY001,LB,STUDY001-SUBJ0013,85,L00085,GLUC,Glucose,CHEMISTRY,81.1,mg/dL,70,100,81.1,81.1,mg/dL,70,100,NORMAL,,END OF TREATMENT,9,10/26/2025,140
STUDY001,LB,STUDY001-SUBJ0013,86,L00086,BUN,Blood Urea Nitrogen,CHEMISTRY,15.95,mg/dL,7,20,15.95,15.95,mg/dL,7,20,NORMAL,,END OF TREATMENT,9,10/26/2025,140
STUDY001,LB,STUDY001-SUBJ0013,87,L00087,CREAT,Creatinine,CHEMISTRY,1.09,mg/dL,0.6,1.2,1.09,1.09,mg/dL,0.6,1.2,NORMAL,,END OF TREATMENT,9,10/26/2025,140
STUDY001,LB,STUDY001-SUBJ0013,88,L00088,BILI,Total Bilirubin,CHEMISTRY,0.86,mg/dL,0.1,1.2,0.86,0.86,mg/dL,0.1,1.2,NORMAL,,END OF TREATMENT,9,10/26/2025,140
STUDY001,LB,STUDY001-SUBJ0013,89,L00089,ALP,Alkaline Phosphatase,CHEMISTRY,84.69,U/L,44,147,84.69,84.69,U/L,44,147,NORMAL,,END OF TREATMENT,9,10/26/2025,140
STUDY001,LB,STUDY001-SUBJ0013,90,L00090,ALT,Alanine Aminotransferase,CHEMISTRY,54.1,U/L,7,56,54.1,54.1,U/L,7,56,NORMAL,,END OF TREATMENT,9,10/26/2025,140
STUDY001,LB,STUDY001-SUBJ0014,1,L00001,HGB,Hemoglobin,HEMATOLOGY,14.03,g/dL,13.5,17.5,14.03,14.03,g/dL,13.5,17.5,NORMAL,,SCREENING,1,8/21/2025,-14
STUDY001,LB,STUDY001-SUBJ0014,2,L00002,HCT,Hematocrit,HEMATOLOGY,42.73,%,41,51,42.73,42.73,%,41,51,NORMAL,,SCREENING,1,8/21/2025,-14
STUDY001,LB,STUDY001-SUBJ0014,3,L00003,WBC,White Blood Cell Count,HEMATOLOGY,6.61,10^9/L,4.5,11,6.61,6.61,10^9/L,4.5,11,NORMAL,,SCREENING,1,8/21/2025,-14
STUDY001,LB,STUDY001-SUBJ0014,4,L00004,PLT,Platelet Count,HEMATOLOGY,288.42,10^9/L,150,450,288.42,288.42,10^9/L,150,450,NORMAL,,SCREENING,1,8/21/2025,-14
STUDY001,LB,STUDY001-SUBJ0014,5,L00005,GLUC,Glucose,CHEMISTRY,87.31,mg/dL,70,100,87.31,87.31,mg/dL,70,100,NORMAL,,SCREENING,1,8/21/2025,-14
STUDY001,LB,STUDY001-SUBJ0014,6,L00006,BUN,Blood Urea Nitrogen,CHEMISTRY,10.6,mg/dL,7,20,10.6,10.6,mg/dL,7,20,NORMAL,,SCREENING,1,8/21/2025,-14
STUDY001,LB,STUDY001-SUBJ0014,7,L00007,CREAT,Creatinine,CHEMISTRY,0.71,mg/dL,0.6,1.2,0.71,0.71,mg/dL,0.6,1.2,NORMAL,,SCREENING,1,8/21/2025,-14
STUDY001,LB,STUDY001-SUBJ0014,8,L00008,BILI,Total Bilirubin,CHEMISTRY,0.42,mg/dL,0.1,1.2,0.42,0.42,mg/dL,0.1,1.2,NORMAL,,SCREENING,1,8/21/2025,-14
STUDY001,LB,STUDY001-SUBJ0014,9,L00009,ALP,Alkaline Phosphatase,CHEMISTRY,81.27,U/L,44,147,81.27,81.27,U/L,44,147,NORMAL,,SCREENING,1,8/21/2025,-14
STUDY001,LB,STUDY001-SUBJ0014,10,L00010,ALT,Alanine Aminotransferase,CHEMISTRY,15.71,U/L,7,56,15.71,15.71,U/L,7,56,NORMAL,,SCREENING,1,8/21/2025,-14
STUDY001,LB,STUDY001-SUBJ0014,11,L00011,HGB,Hemoglobin,HEMATOLOGY,14.05,g/dL,13.5,17.5,14.05,14.05,g/dL,13.5,17.5,NORMAL,Y,BASELINE,2,9/4/2025,1
STUDY001,LB,STUDY001-SUBJ0014,12,L00012,HCT,Hematocrit,HEMATOLOGY,42.37,%,41,51,42.37,42.37,%,41,51,NORMAL,Y,BASELINE,2,9/4/2025,1
STUDY001,LB,STUDY001-SUBJ0014,13,L00013,WBC,White Blood Cell Count,HEMATOLOGY,6.4,10^9/L,4.5,11,6.4,6.4,10^9/L,4.5,11,NORMAL,Y,BASELINE,2,9/4/2025,1
STUDY001,LB,STUDY001-SUBJ0014,14,L00014,PLT,Platelet Count,HEMATOLOGY,280.8,10^9/L,150,450,280.8,280.8,10^9/L,150,450,NORMAL,Y,BASELINE,2,9/4/2025,1
STUDY001,LB,STUDY001-SUBJ0014,15,L00015,GLUC,Glucose,CHEMISTRY,89.14,mg/dL,70,100,89.14,89.14,mg/dL,70,100,NORMAL,Y,BASELINE,2,9/4/2025,1
STUDY001,LB,STUDY001-SUBJ0014,16,L00016,BUN,Blood Urea Nitrogen,CHEMISTRY,10.89,mg/dL,7,20,10.89,10.89,mg/dL,7,20,NORMAL,Y,BASELINE,2,9/4/2025,1
STUDY001,LB,STUDY001-SUBJ0014,17,L00017,CREAT,Creatinine,CHEMISTRY,0.67,mg/dL,0.6,1.2,0.67,0.67,mg/dL,0.6,1.2,NORMAL,Y,BASELINE,2,9/4/2025,1
STUDY001,LB,STUDY001-SUBJ0014,18,L00018,BILI,Total Bilirubin,CHEMISTRY,0.41,mg/dL,0.1,1.2,0.41,0.41,mg/dL,0.1,1.2,NORMAL,Y,BASELINE,2,9/4/2025,1
STUDY001,LB,STUDY001-SUBJ0014,19,L00019,ALP,Alkaline Phosphatase,CHEMISTRY,81.44,U/L,44,147,81.44,81.44,U/L,44,147,NORMAL,Y,BASELINE,2,9/4/2025,1
STUDY001,LB,STUDY001-SUBJ0014,20,L00020,ALT,Alanine Aminotransferase,CHEMISTRY,14.77,U/L,7,56,14.77,14.77,U/L,7,56,NORMAL,Y,BASELINE,2,9/4/2025,1
STUDY001,LB,STUDY001-SUBJ0014,21,L00021,HGB,Hemoglobin,HEMATOLOGY,13.97,g/dL,13.5,17.5,13.97,13.97,g/dL,13.5,17.5,NORMAL,,WEEK 1,3,9/10/2025,7
STUDY001,LB,STUDY001-SUBJ0014,22,L00022,HCT,Hematocrit,HEMATOLOGY,43.01,%,41,51,43.01,43.01,%,41,51,NORMAL,,WEEK 1,3,9/10/2025,7
STUDY001,LB,STUDY001-SUBJ0014,23,L00023,WBC,White Blood Cell Count,HEMATOLOGY,7.05,10^9/L,4.5,11,7.05,7.05,10^9/L,4.5,11,NORMAL,,WEEK 1,3,9/10/2025,7
STUDY001,LB,STUDY001-SUBJ0014,24,L00024,PLT,Platelet Count,HEMATOLOGY,281.8,10^9/L,150,450,281.8,281.8,10^9/L,150,450,NORMAL,,WEEK 1,3,9/10/2025,7
STUDY001,LB,STUDY001-SUBJ0014,25,L00025,GLUC,Glucose,CHEMISTRY,87.59,mg/dL,70,100,87.59,87.59,mg/dL,70,100,NORMAL,,WEEK 1,3,9/10/2025,7
STUDY001,LB,STUDY001-SUBJ0014,26,L00026,BUN,Blood Urea Nitrogen,CHEMISTRY,10.8,mg/dL,7,20,10.8,10.8,mg/dL,7,20,NORMAL,,WEEK 1,3,9/10/2025,7
STUDY001,LB,STUDY001-SUBJ0014,27,L00027,CREAT,Creatinine,CHEMISTRY,0.72,mg/dL,0.6,1.2,0.72,0.72,mg/dL,0.6,1.2,NORMAL,,WEEK 1,3,9/10/2025,7
STUDY001,LB,STUDY001-SUBJ0014,28,L00028,BILI,Total Bilirubin,CHEMISTRY,0.43,mg/dL,0.1,1.2,0.43,0.43,mg/dL,0.1,1.2,NORMAL,,WEEK 1,3,9/10/2025,7
STUDY001,LB,STUDY001-SUBJ0014,29,L00029,ALP,Alkaline Phosphatase,CHEMISTRY,78.66,U/L,44,147,78.66,78.66,U/L,44,147,NORMAL,,WEEK 1,3,9/10/2025,7
STUDY001,LB,STUDY001-SUBJ0014,30,L00030,ALT,Alanine Aminotransferase,CHEMISTRY,14.44,U/L,7,56,14.44,14.44,U/L,7,56,NORMAL,,WEEK 1,3,9/10/2025,7
STUDY001,LB,STUDY001-SUBJ0014,31,L00031,HGB,Hemoglobin,HEMATOLOGY,13.79,g/dL,13.5,17.5,13.79,13.79,g/dL,13.5,17.5,NORMAL,,WEEK 2,4,9/17/2025,14
STUDY001,LB,STUDY001-SUBJ0014,32,L00032,HCT,Hematocrit,HEMATOLOGY,42.9,%,41,51,42.9,42.9,%,41,51,NORMAL,,WEEK 2,4,9/17/2025,14
STUDY001,LB,STUDY001-SUBJ0014,33,L00033,WBC,White Blood Cell Count,HEMATOLOGY,6.22,10^9/L,4.5,11,6.22,6.22,10^9/L,4.5,11,NORMAL,,WEEK 2,4,9/17/2025,14
STUDY001,LB,STUDY001-SUBJ0014,34,L00034,PLT,Platelet Count,HEMATOLOGY,292.81,10^9/L,150,450,292.81,292.81,10^9/L,150,450,NORMAL,,WEEK 2,4,9/17/2025,14
STUDY001,LB,STUDY001-SUBJ0014,35,L00035,GLUC,Glucose,CHEMISTRY,87.62,mg/dL,70,100,87.62,87.62,mg/dL,70,100,NORMAL,,WEEK 2,4,9/17/2025,14
STUDY001,LB,STUDY001-SUBJ0014,36,L00036,BUN,Blood Urea Nitrogen,CHEMISTRY,10.32,mg/dL,7,20,10.32,10.32,mg/dL,7,20,NORMAL,,WEEK 2,4,9/17/2025,14
STUDY001,LB,STUDY001-SUBJ0014,37,L00037,CREAT,Creatinine,CHEMISTRY,0.69,mg/dL,0.6,1.2,0.69,0.69,mg/dL,0.6,1.2,NORMAL,,WEEK 2,4,9/17/2025,14
STUDY001,LB,STUDY001-SUBJ0014,38,L00038,BILI,Total Bilirubin,CHEMISTRY,0.43,mg/dL,0.1,1.2,0.43,0.43,mg/dL,0.1,1.2,NORMAL,,WEEK 2,4,9/17/2025,14
STUDY001,LB,STUDY001-SUBJ0014,39,L00039,ALP,Alkaline Phosphatase,CHEMISTRY,77.74,U/L,44,147,77.74,77.74,U/L,44,147,NORMAL,,WEEK 2,4,9/17/2025,14
STUDY001,LB,STUDY001-SUBJ0014,40,L00040,ALT,Alanine Aminotransferase,CHEMISTRY,15.9,U/L,7,56,15.9,15.9,U/L,7,56,NORMAL,,WEEK 2,4,9/17/2025,14
STUDY001,LB,STUDY001-SUBJ0014,41,L00041,HGB,Hemoglobin,HEMATOLOGY,14.17,g/dL,13.5,17.5,14.17,14.17,g/dL,13.5,17.5,NORMAL,,WEEK 4,5,10/1/2025,28
STUDY001,LB,STUDY001-SUBJ0014,42,L00042,HCT,Hematocrit,HEMATOLOGY,42.83,%,41,51,42.83,42.83,%,41,51,NORMAL,,WEEK 4,5,10/1/2025,28
STUDY001,LB,STUDY001-SUBJ0014,43,L00043,WBC,White Blood Cell Count,HEMATOLOGY,6.49,10^9/L,4.5,11,6.49,6.49,10^9/L,4.5,11,NORMAL,,WEEK 4,5,10/1/2025,28
STUDY001,LB,STUDY001-SUBJ0014,44,L00044,PLT,Platelet Count,HEMATOLOGY,285.1,10^9/L,150,450,285.1,285.1,10^9/L,150,450,NORMAL,,WEEK 4,5,10/1/2025,28
STUDY001,LB,STUDY001-SUBJ0014,45,L00045,GLUC,Glucose,CHEMISTRY,86.15,mg/dL,70,100,86.15,86.15,mg/dL,70,100,NORMAL,,WEEK 4,5,10/1/2025,28
STUDY001,LB,STUDY001-SUBJ0014,46,L00046,BUN,Blood Urea Nitrogen,CHEMISTRY,10.92,mg/dL,7,20,10.92,10.92,mg/dL,7,20,NORMAL,,WEEK 4,5,10/1/2025,28
STUDY001,LB,STUDY001-SUBJ0014,47,L00047,CREAT,Creatinine,CHEMISTRY,0.72,mg/dL,0.6,1.2,0.72,0.72,mg/dL,0.6,1.2,NORMAL,,WEEK 4,5,10/1/2025,28
STUDY001,LB,STUDY001-SUBJ0014,48,L00048,BILI,Total Bilirubin,CHEMISTRY,0.43,mg/dL,0.1,1.2,0.43,0.43,mg/dL,0.1,1.2,NORMAL,,WEEK 4,5,10/1/2025,28
STUDY001,LB,STUDY001-SUBJ0014,49,L00049,ALP,Alkaline Phosphatase,CHEMISTRY,81.37,U/L,44,147,81.37,81.37,U/L,44,147,NORMAL,,WEEK 4,5,10/1/2025,28
STUDY001,LB,STUDY001-SUBJ0014,50,L00050,ALT,Alanine Aminotransferase,CHEMISTRY,17.07,U/L,7,56,17.07,17.07,U/L,7,56,NORMAL,,WEEK 4,5,10/1/2025,28
STUDY001,LB,STUDY001-SUBJ0014,51,L00051,HGB,Hemoglobin,HEMATOLOGY,13.99,g/dL,13.5,17.5,13.99,13.99,g/dL,13.5,17.5,NORMAL,,WEEK 8,6,10/29/2025,56
STUDY001,LB,STUDY001-SUBJ0014,52,L00052,HCT,Hematocrit,HEMATOLOGY,42.73,%,41,51,42.73,42.73,%,41,51,NORMAL,,WEEK 8,6,10/29/2025,56
STUDY001,LB,STUDY001-SUBJ0014,53,L00053,WBC,White Blood Cell Count,HEMATOLOGY,6.4,10^9/L,4.5,11,6.4,6.4,10^9/L,4.5,11,NORMAL,,WEEK 8,6,10/29/2025,56
STUDY001,LB,STUDY001-SUBJ0014,54,L00054,PLT,Platelet Count,HEMATOLOGY,280.16,10^9/L,150,450,280.16,280.16,10^9/L,150,450,NORMAL,,WEEK 8,6,10/29/2025,56
STUDY001,LB,STUDY001-SUBJ0014,55,L00055,GLUC,Glucose,CHEMISTRY,86.72,mg/dL,70,100,86.72,86.72,mg/dL,70,100,NORMAL,,WEEK 8,6,10/29/2025,56
STUDY001,LB,STUDY001-SUBJ0014,56,L00056,BUN,Blood Urea Nitrogen,CHEMISTRY,11.4,mg/dL,7,20,11.4,11.4,mg/dL,7,20,NORMAL,,WEEK 8,6,10/29/2025,56
STUDY001,LB,STUDY001-SUBJ0014,57,L00057,CREAT,Creatinine,CHEMISTRY,0.73,mg/dL,0.6,1.2,0.73,0.73,mg/dL,0.6,1.2,NORMAL,,WEEK 8,6,10/29/2025,56
STUDY001,LB,STUDY001-SUBJ0014,58,L00058,BILI,Total Bilirubin,CHEMISTRY,0.4,mg/dL,0.1,1.2,0.4,0.4,mg/dL,0.1,1.2,NORMAL,,WEEK 8,6,10/29/2025,56
STUDY001,LB,STUDY001-SUBJ0014,59,L00059,ALP,Alkaline Phosphatase,CHEMISTRY,78.56,U/L,44,147,78.56,78.56,U/L,44,147,NORMAL,,WEEK 8,6,10/29/2025,56
STUDY001,LB,STUDY001-SUBJ0014,60,L00060,ALT,Alanine Aminotransferase,CHEMISTRY,15.31,U/L,7,56,15.31,15.31,U/L,7,56,NORMAL,,WEEK 8,6,10/29/2025,56
STUDY001,LB,STUDY001-SUBJ0014,61,L00061,HGB,Hemoglobin,HEMATOLOGY,13.88,g/dL,13.5,17.5,13.88,13.88,g/dL,13.5,17.5,NORMAL,,WEEK 12,7,11/26/2025,84
STUDY001,LB,STUDY001-SUBJ0014,62,L00062,HCT,Hematocrit,HEMATOLOGY,42.78,%,41,51,42.78,42.78,%,41,51,NORMAL,,WEEK 12,7,11/26/2025,84
STUDY001,LB,STUDY001-SUBJ0014,63,L00063,WBC,White Blood Cell Count,HEMATOLOGY,6.21,10^9/L,4.5,11,6.21,6.21,10^9/L,4.5,11,NORMAL,,WEEK 12,7,11/26/2025,84
STUDY001,LB,STUDY001-SUBJ0014,64,L00064,PLT,Platelet Count,HEMATOLOGY,278.34,10^9/L,150,450,278.34,278.34,10^9/L,150,450,NORMAL,,WEEK 12,7,11/26/2025,84
STUDY001,LB,STUDY001-SUBJ0014,65,L00065,GLUC,Glucose,CHEMISTRY,89.62,mg/dL,70,100,89.62,89.62,mg/dL,70,100,NORMAL,,WEEK 12,7,11/26/2025,84
STUDY001,LB,STUDY001-SUBJ0014,66,L00066,BUN,Blood Urea Nitrogen,CHEMISTRY,10.72,mg/dL,7,20,10.72,10.72,mg/dL,7,20,NORMAL,,WEEK 12,7,11/26/2025,84
STUDY001,LB,STUDY001-SUBJ0014,67,L00067,CREAT,Creatinine,CHEMISTRY,0.71,mg/dL,0.6,1.2,0.71,0.71,mg/dL,0.6,1.2,NORMAL,,WEEK 12,7,11/26/2025,84
STUDY001,LB,STUDY001-SUBJ0014,68,L00068,BILI,Total Bilirubin,CHEMISTRY,0.42,mg/dL,0.1,1.2,0.42,0.42,mg/dL,0.1,1.2,NORMAL,,WEEK 12,7,11/26/2025,84
STUDY001,LB,STUDY001-SUBJ0014,69,L00069,ALP,Alkaline Phosphatase,CHEMISTRY,84.42,U/L,44,147,84.42,84.42,U/L,44,147,NORMAL,,WEEK 12,7,11/26/2025,84
STUDY001,LB,STUDY001-SUBJ0014,70,L00070,ALT,Alanine Aminotransferase,CHEMISTRY,13.34,U/L,7,56,13.34,13.34,U/L,7,56,NORMAL,,WEEK 12,7,11/26/2025,84
STUDY001,LB,STUDY001-SUBJ0014,71,L00071,HGB,Hemoglobin,HEMATOLOGY,14.01,g/dL,13.5,17.5,14.01,14.01,g/dL,13.5,17.5,NORMAL,,WEEK 16,8,12/24/2025,112
STUDY001,LB,STUDY001-SUBJ0014,72,L00072,HCT,Hematocrit,HEMATOLOGY,42.96,%,41,51,42.96,42.96,%,41,51,NORMAL,,WEEK 16,8,12/24/2025,112
STUDY001,LB,STUDY001-SUBJ0014,73,L00073,WBC,White Blood Cell Count,HEMATOLOGY,6.43,10^9/L,4.5,11,6.43,6.43,10^9/L,4.5,11,NORMAL,,WEEK 16,8,12/24/2025,112
STUDY001,LB,STUDY001-SUBJ0014,74,L00074,PLT,Platelet Count,HEMATOLOGY,287.76,10^9/L,150,450,287.76,287.76,10^9/L,150,450,NORMAL,,WEEK 16,8,12/24/2025,112
STUDY001,LB,STUDY001-SUBJ0014,75,L00075,GLUC,Glucose,CHEMISTRY,87.59,mg/dL,70,100,87.59,87.59,mg/dL,70,100,NORMAL,,WEEK 16,8,12/24/2025,112
STUDY001,LB,STUDY001-SUBJ0014,76,L00076,BUN,Blood Urea Nitrogen,CHEMISTRY,11.01,mg/dL,7,20,11.01,11.01,mg/dL,7,20,NORMAL,,WEEK 16,8,12/24/2025,112
STUDY001,LB,STUDY001-SUBJ0014,77,L00077,CREAT,Creatinine,CHEMISTRY,0.69,mg/dL,0.6,1.2,0.69,0.69,mg/dL,0.6,1.2,NORMAL,,WEEK 16,8,12/24/2025,112
STUDY001,LB,STUDY001-SUBJ0014,78,L00078,BILI,Total Bilirubin,CHEMISTRY,0.4,mg/dL,0.1,1.2,0.4,0.4,mg/dL,0.1,1.2,NORMAL,,WEEK 16,8,12/24/2025,112
STUDY001,LB,STUDY001-SUBJ0014,79,L00079,ALP,Alkaline Phosphatase,CHEMISTRY,80.18,U/L,44,147,80.18,80.18,U/L,44,147,NORMAL,,WEEK 16,8,12/24/2025,112
STUDY001,LB,STUDY001-SUBJ0014,80,L00080,ALT,Alanine Aminotransferase,CHEMISTRY,16,U/L,7,56,16,16,U/L,7,56,NORMAL,,WEEK 16,8,12/24/2025,112
STUDY001,LB,STUDY001-SUBJ0014,81,L00081,HGB,Hemoglobin,HEMATOLOGY,14.27,g/dL,13.5,17.5,14.27,14.27,g/dL,13.5,17.5,NORMAL,,END OF TREATMENT,9,1/21/2026,140
STUDY001,LB,STUDY001-SUBJ0014,82,L00082,HCT,Hematocrit,HEMATOLOGY,42.64,%,41,51,42.64,42.64,%,41,51,NORMAL,,END OF TREATMENT,9,1/21/2026,140
STUDY001,LB,STUDY001-SUBJ0014,83,L00083,WBC,White Blood Cell Count,HEMATOLOGY,6.54,10^9/L,4.5,11,6.54,6.54,10^9/L,4.5,11,NORMAL,,END OF TREATMENT,9,1/21/2026,140
STUDY001,LB,STUDY001-SUBJ0014,84,L00084,PLT,Platelet Count,HEMATOLOGY,287.8,10^9/L,150,450,287.8,287.8,10^9/L,150,450,NORMAL,,END OF TREATMENT,9,1/21/2026,140
STUDY001,LB,STUDY001-SUBJ0014,85,L00085,GLUC,Glucose,CHEMISTRY,87.73,mg/dL,70,100,87.73,87.73,mg/dL,70,100,NORMAL,,END OF TREATMENT,9,1/21/2026,140
STUDY001,LB,STUDY001-SUBJ0014,86,L00086,BUN,Blood Urea Nitrogen,CHEMISTRY,10.98,mg/dL,7,20,10.98,10.98,mg/dL,7,20,NORMAL,,END OF TREATMENT,9,1/21/2026,140
STUDY001,LB,STUDY001-SUBJ0014,87,L00087,CREAT,Creatinine,CHEMISTRY,0.7,mg/dL,0.6,1.2,0.7,0.7,mg/dL,0.6,1.2,NORMAL,,END OF TREATMENT,9,1/21/2026,140
STUDY001,LB,STUDY001-SUBJ0014,88,L00088,BILI,Total Bilirubin,CHEMISTRY,0.4,mg/dL,0.1,1.2,0.4,0.4,mg/dL,0.1,1.2,NORMAL,,END OF TREATMENT,9,1/21/2026,140
STUDY001,LB,STUDY001-SUBJ0014,89,L00089,ALP,Alkaline Phosphatase,CHEMISTRY,79.28,U/L,44,147,79.28,79.28,U/L,44,147,NORMAL,,END OF TREATMENT,9,1/21/2026,140
STUDY001,LB,STUDY001-SUBJ0014,90,L00090,ALT,Alanine Aminotransferase,CHEMISTRY,14.5,U/L,7,56,14.5,14.5,U/L,7,56,NORMAL,,END OF TREATMENT,9,1/21/2026,140
STUDY001,LB,STUDY001-SUBJ0015,1,L00001,HGB,Hemoglobin,HEMATOLOGY,14.67,g/dL,13.5,17.5,14.67,14.67,g/dL,13.5,17.5,NORMAL,,SCREENING,1,1/17/2025,-14
STUDY001,LB,STUDY001-SUBJ0015,2,L00002,HCT,Hematocrit,HEMATOLOGY,47.65,%,41,51,47.65,47.65,%,41,51,NORMAL,,SCREENING,1,1/17/2025,-14
STUDY001,LB,STUDY001-SUBJ0015,3,L00003,WBC,White Blood Cell Count,HEMATOLOGY,4.7,10^9/L,4.5,11,4.7,4.7,10^9/L,4.5,11,NORMAL,,SCREENING,1,1/17/2025,-14
STUDY001,LB,STUDY001-SUBJ0015,4,L00004,PLT,Platelet Count,HEMATOLOGY,308.1,10^9/L,150,450,308.1,308.1,10^9/L,150,450,NORMAL,,SCREENING,1,1/17/2025,-14
STUDY001,LB,STUDY001-SUBJ0015,5,L00005,GLUC,Glucose,CHEMISTRY,80.81,mg/dL,70,100,80.81,80.81,mg/dL,70,100,NORMAL,,SCREENING,1,1/17/2025,-14
STUDY001,LB,STUDY001-SUBJ0015,6,L00006,BUN,Blood Urea Nitrogen,CHEMISTRY,15.36,mg/dL,7,20,15.36,15.36,mg/dL,7,20,NORMAL,,SCREENING,1,1/17/2025,-14
STUDY001,LB,STUDY001-SUBJ0015,7,L00007,CREAT,Creatinine,CHEMISTRY,1.04,mg/dL,0.6,1.2,1.04,1.04,mg/dL,0.6,1.2,NORMAL,,SCREENING,1,1/17/2025,-14
STUDY001,LB,STUDY001-SUBJ0015,8,L00008,BILI,Total Bilirubin,CHEMISTRY,0.58,mg/dL,0.1,1.2,0.58,0.58,mg/dL,0.1,1.2,NORMAL,,SCREENING,1,1/17/2025,-14
STUDY001,LB,STUDY001-SUBJ0015,9,L00009,ALP,Alkaline Phosphatase,CHEMISTRY,127.31,U/L,44,147,127.31,127.31,U/L,44,147,NORMAL,,SCREENING,1,1/17/2025,-14
STUDY001,LB,STUDY001-SUBJ0015,10,L00010,ALT,Alanine Aminotransferase,CHEMISTRY,4.12,U/L,7,56,4.12,4.12,U/L,7,56,LOW,,SCREENING,1,1/17/2025,-14
STUDY001,LB,STUDY001-SUBJ0015,11,L00011,HGB,Hemoglobin,HEMATOLOGY,14.78,g/dL,13.5,17.5,14.78,14.78,g/dL,13.5,17.5,NORMAL,Y,BASELINE,2,1/31/2025,1
STUDY001,LB,STUDY001-SUBJ0015,12,L00012,HCT,Hematocrit,HEMATOLOGY,48.14,%,41,51,48.14,48.14,%,41,51,NORMAL,Y,BASELINE,2,1/31/2025,1
STUDY001,LB,STUDY001-SUBJ0015,13,L00013,WBC,White Blood Cell Count,HEMATOLOGY,4.52,10^9/L,4.5,11,4.52,4.52,10^9/L,4.5,11,NORMAL,Y,BASELINE,2,1/31/2025,1
STUDY001,LB,STUDY001-SUBJ0015,14,L00014,PLT,Platelet Count,HEMATOLOGY,302.52,10^9/L,150,450,302.52,302.52,10^9/L,150,450,NORMAL,Y,BASELINE,2,1/31/2025,1
STUDY001,LB,STUDY001-SUBJ0015,15,L00015,GLUC,Glucose,CHEMISTRY,80.07,mg/dL,70,100,80.07,80.07,mg/dL,70,100,NORMAL,Y,BASELINE,2,1/31/2025,1
STUDY001,LB,STUDY001-SUBJ0015,16,L00016,BUN,Blood Urea Nitrogen,CHEMISTRY,15.48,mg/dL,7,20,15.48,15.48,mg/dL,7,20,NORMAL,Y,BASELINE,2,1/31/2025,1
STUDY001,LB,STUDY001-SUBJ0015,17,L00017,CREAT,Creatinine,CHEMISTRY,1.04,mg/dL,0.6,1.2,1.04,1.04,mg/dL,0.6,1.2,NORMAL,Y,BASELINE,2,1/31/2025,1
STUDY001,LB,STUDY001-SUBJ0015,18,L00018,BILI,Total Bilirubin,CHEMISTRY,0.61,mg/dL,0.1,1.2,0.61,0.61,mg/dL,0.1,1.2,NORMAL,Y,BASELINE,2,1/31/2025,1
STUDY001,LB,STUDY001-SUBJ0015,19,L00019,ALP,Alkaline Phosphatase,CHEMISTRY,126.31,U/L,44,147,126.31,126.31,U/L,44,147,NORMAL,Y,BASELINE,2,1/31/2025,1
STUDY001,LB,STUDY001-SUBJ0015,20,L00020,ALT,Alanine Aminotransferase,CHEMISTRY,5.27,U/L,7,56,5.27,5.27,U/L,7,56,LOW,Y,BASELINE,2,1/31/2025,1
STUDY001,LB,STUDY001-SUBJ0015,21,L00021,HGB,Hemoglobin,HEMATOLOGY,14.83,g/dL,13.5,17.5,14.83,14.83,g/dL,13.5,17.5,NORMAL,,WEEK 1,3,2/6/2025,7
STUDY001,LB,STUDY001-SUBJ0015,22,L00022,HCT,Hematocrit,HEMATOLOGY,47.99,%,41,51,47.99,47.99,%,41,51,NORMAL,,WEEK 1,3,2/6/2025,7
STUDY001,LB,STUDY001-SUBJ0015,23,L00023,WBC,White Blood Cell Count,HEMATOLOGY,4.81,10^9/L,4.5,11,4.81,4.81,10^9/L,4.5,11,NORMAL,,WEEK 1,3,2/6/2025,7
STUDY001,LB,STUDY001-SUBJ0015,24,L00024,PLT,Platelet Count,HEMATOLOGY,305.55,10^9/L,150,450,305.55,305.55,10^9/L,150,450,NORMAL,,WEEK 1,3,2/6/2025,7
STUDY001,LB,STUDY001-SUBJ0015,25,L00025,GLUC,Glucose,CHEMISTRY,80.14,mg/dL,70,100,80.14,80.14,mg/dL,70,100,NORMAL,,WEEK 1,3,2/6/2025,7
STUDY001,LB,STUDY001-SUBJ0015,26,L00026,BUN,Blood Urea Nitrogen,CHEMISTRY,15.45,mg/dL,7,20,15.45,15.45,mg/dL,7,20,NORMAL,,WEEK 1,3,2/6/2025,7
STUDY001,LB,STUDY001-SUBJ0015,27,L00027,CREAT,Creatinine,CHEMISTRY,1.04,mg/dL,0.6,1.2,1.04,1.04,mg/dL,0.6,1.2,NORMAL,,WEEK 1,3,2/6/2025,7
STUDY001,LB,STUDY001-SUBJ0015,28,L00028,BILI,Total Bilirubin,CHEMISTRY,0.59,mg/dL,0.1,1.2,0.59,0.59,mg/dL,0.1,1.2,NORMAL,,WEEK 1,3,2/6/2025,7
STUDY001,LB,STUDY001-SUBJ0015,29,L00029,ALP,Alkaline Phosphatase,CHEMISTRY,127.94,U/L,44,147,127.94,127.94,U/L,44,147,NORMAL,,WEEK 1,3,2/6/2025,7
STUDY001,LB,STUDY001-SUBJ0015,30,L00030,ALT,Alanine Aminotransferase,CHEMISTRY,3.8,U/L,7,56,3.8,3.8,U/L,7,56,LOW,,WEEK 1,3,2/6/2025,7
STUDY001,LB,STUDY001-SUBJ0015,31,L00031,HGB,Hemoglobin,HEMATOLOGY,14.64,g/dL,13.5,17.5,14.64,14.64,g/dL,13.5,17.5,NORMAL,,WEEK 2,4,2/13/2025,14
STUDY001,LB,STUDY001-SUBJ0015,32,L00032,HCT,Hematocrit,HEMATOLOGY,47.53,%,41,51,47.53,47.53,%,41,51,NORMAL,,WEEK 2,4,2/13/2025,14
STUDY001,LB,STUDY001-SUBJ0015,33,L00033,WBC,White Blood Cell Count,HEMATOLOGY,5,10^9/L,4.5,11,5,5,10^9/L,4.5,11,NORMAL,,WEEK 2,4,2/13/2025,14
STUDY001,LB,STUDY001-SUBJ0015,34,L00034,PLT,Platelet Count,HEMATOLOGY,297.69,10^9/L,150,450,297.69,297.69,10^9/L,150,450,NORMAL,,WEEK 2,4,2/13/2025,14
STUDY001,LB,STUDY001-SUBJ0015,35,L00035,GLUC,Glucose,CHEMISTRY,78.81,mg/dL,70,100,78.81,78.81,mg/dL,70,100,NORMAL,,WEEK 2,4,2/13/2025,14
STUDY001,LB,STUDY001-SUBJ0015,36,L00036,BUN,Blood Urea Nitrogen,CHEMISTRY,15.54,mg/dL,7,20,15.54,15.54,mg/dL,7,20,NORMAL,,WEEK 2,4,2/13/2025,14
STUDY001,LB,STUDY001-SUBJ0015,37,L00037,CREAT,Creatinine,CHEMISTRY,1.03,mg/dL,0.6,1.2,1.03,1.03,mg/dL,0.6,1.2,NORMAL,,WEEK 2,4,2/13/2025,14
STUDY001,LB,STUDY001-SUBJ0015,38,L00038,BILI,Total Bilirubin,CHEMISTRY,0.59,mg/dL,0.1,1.2,0.59,0.59,mg/dL,0.1,1.2,NORMAL,,WEEK 2,4,2/13/2025,14
STUDY001,LB,STUDY001-SUBJ0015,39,L00039,ALP,Alkaline Phosphatase,CHEMISTRY,128.75,U/L,44,147,128.75,128.75,U/L,44,147,NORMAL,,WEEK 2,4,2/13/2025,14
STUDY001,LB,STUDY001-SUBJ0015,40,L00040,ALT,Alanine Aminotransferase,CHEMISTRY,5.45,U/L,7,56,5.45,5.45,U/L,7,56,LOW,,WEEK 2,4,2/13/2025,14
STUDY001,LB,STUDY001-SUBJ0015,41,L00041,HGB,Hemoglobin,HEMATOLOGY,14.74,g/dL,13.5,17.5,14.74,14.74,g/dL,13.5,17.5,NORMAL,,WEEK 4,5,2/27/2025,28
STUDY001,LB,STUDY001-SUBJ0015,42,L00042,HCT,Hematocrit,HEMATOLOGY,47.76,%,41,51,47.76,47.76,%,41,51,NORMAL,,WEEK 4,5,2/27/2025,28
STUDY001,LB,STUDY001-SUBJ0015,43,L00043,WBC,White Blood Cell Count,HEMATOLOGY,4.72,10^9/L,4.5,11,4.72,4.72,10^9/L,4.5,11,NORMAL,,WEEK 4,5,2/27/2025,28
STUDY001,LB,STUDY001-SUBJ0015,44,L00044,PLT,Platelet Count,HEMATOLOGY,315.04,10^9/L,150,450,315.04,315.04,10^9/L,150,450,NORMAL,,WEEK 4,5,2/27/2025,28
STUDY001,LB,STUDY001-SUBJ0015,45,L00045,GLUC,Glucose,CHEMISTRY,79.96,mg/dL,70,100,79.96,79.96,mg/dL,70,100,NORMAL,,WEEK 4,5,2/27/2025,28
STUDY001,LB,STUDY001-SUBJ0015,46,L00046,BUN,Blood Urea Nitrogen,CHEMISTRY,15.25,mg/dL,7,20,15.25,15.25,mg/dL,7,20,NORMAL,,WEEK 4,5,2/27/2025,28
STUDY001,LB,STUDY001-SUBJ0015,47,L00047,CREAT,Creatinine,CHEMISTRY,1.05,mg/dL,0.6,1.2,1.05,1.05,mg/dL,0.6,1.2,NORMAL,,WEEK 4,5,2/27/2025,28
STUDY001,LB,STUDY001-SUBJ0015,48,L00048,BILI,Total Bilirubin,CHEMISTRY,0.6,mg/dL,0.1,1.2,0.6,0.6,mg/dL,0.1,1.2,NORMAL,,WEEK 4,5,2/27/2025,28
STUDY001,LB,STUDY001-SUBJ0015,49,L00049,ALP,Alkaline Phosphatase,CHEMISTRY,130.86,U/L,44,147,130.86,130.86,U/L,44,147,NORMAL,,WEEK 4,5,2/27/2025,28
STUDY001,LB,STUDY001-SUBJ0015,50,L00050,ALT,Alanine Aminotransferase,CHEMISTRY,6.57,U/L,7,56,6.57,6.57,U/L,7,56,LOW,,WEEK 4,5,2/27/2025,28
STUDY001,LB,STUDY001-SUBJ0015,51,L00051,HGB,Hemoglobin,HEMATOLOGY,14.76,g/dL,13.5,17.5,14.76,14.76,g/dL,13.5,17.5,NORMAL,,WEEK 8,6,3/27/2025,56
STUDY001,LB,STUDY001-SUBJ0015,52,L00052,HCT,Hematocrit,HEMATOLOGY,47.61,%,41,51,47.61,47.61,%,41,51,NORMAL,,WEEK 8,6,3/27/2025,56
STUDY001,LB,STUDY001-SUBJ0015,53,L00053,WBC,White Blood Cell Count,HEMATOLOGY,4.85,10^9/L,4.5,11,4.85,4.85,10^9/L,4.5,11,NORMAL,,WEEK 8,6,3/27/2025,56
STUDY001,LB,STUDY001-SUBJ0015,54,L00054,PLT,Platelet Count,HEMATOLOGY,310.04,10^9/L,150,450,310.04,310.04,10^9/L,150,450,NORMAL,,WEEK 8,6,3/27/2025,56
STUDY001,LB,STUDY001-SUBJ0015,55,L00055,GLUC,Glucose,CHEMISTRY,79.63,mg/dL,70,100,79.63,79.63,mg/dL,70,100,NORMAL,,WEEK 8,6,3/27/2025,56
STUDY001,LB,STUDY001-SUBJ0015,56,L00056,BUN,Blood Urea Nitrogen,CHEMISTRY,15.78,mg/dL,7,20,15.78,15.78,mg/dL,7,20,NORMAL,,WEEK 8,6,3/27/2025,56
STUDY001,LB,STUDY001-SUBJ0015,57,L00057,CREAT,Creatinine,CHEMISTRY,1.05,mg/dL,0.6,1.2,1.05,1.05,mg/dL,0.6,1.2,NORMAL,,WEEK 8,6,3/27/2025,56
STUDY001,LB,STUDY001-SUBJ0015,58,L00058,BILI,Total Bilirubin,CHEMISTRY,0.59,mg/dL,0.1,1.2,0.59,0.59,mg/dL,0.1,1.2,NORMAL,,WEEK 8,6,3/27/2025,56
STUDY001,LB,STUDY001-SUBJ0015,59,L00059,ALP,Alkaline Phosphatase,CHEMISTRY,123.07,U/L,44,147,123.07,123.07,U/L,44,147,NORMAL,,WEEK 8,6,3/27/2025,56
STUDY001,LB,STUDY001-SUBJ0015,60,L00060,ALT,Alanine Aminotransferase,CHEMISTRY,6.04,U/L,7,56,6.04,6.04,U/L,7,56,LOW,,WEEK 8,6,3/27/2025,56
STUDY001,LB,STUDY001-SUBJ0015,61,L00061,HGB,Hemoglobin,HEMATOLOGY,14.9,g/dL,13.5,17.5,14.9,14.9,g/dL,13.5,17.5,NORMAL,,WEEK 12,7,4/24/2025,84
STUDY001,LB,STUDY001-SUBJ0015,62,L00062,HCT,Hematocrit,HEMATOLOGY,47.85,%,41,51,47.85,47.85,%,41,51,NORMAL,,WEEK 12,7,4/24/2025,84
STUDY001,LB,STUDY001-SUBJ0015,63,L00063,WBC,White Blood Cell Count,HEMATOLOGY,4.89,10^9/L,4.5,11,4.89,4.89,10^9/L,4.5,11,NORMAL,,WEEK 12,7,4/24/2025,84
STUDY001,LB,STUDY001-SUBJ0015,64,L00064,PLT,Platelet Count,HEMATOLOGY,304.51,10^9/L,150,450,304.51,304.51,10^9/L,150,450,NORMAL,,WEEK 12,7,4/24/2025,84
STUDY001,LB,STUDY001-SUBJ0015,65,L00065,GLUC,Glucose,CHEMISTRY,79.95,mg/dL,70,100,79.95,79.95,mg/dL,70,100,NORMAL,,WEEK 12,7,4/24/2025,84
STUDY001,LB,STUDY001-SUBJ0015,66,L00066,BUN,Blood Urea Nitrogen,CHEMISTRY,16.36,mg/dL,7,20,16.36,16.36,mg/dL,7,20,NORMAL,,WEEK 12,7,4/24/2025,84
STUDY001,LB,STUDY001-SUBJ0015,67,L00067,CREAT,Creatinine,CHEMISTRY,1.03,mg/dL,0.6,1.2,1.03,1.03,mg/dL,0.6,1.2,NORMAL,,WEEK 12,7,4/24/2025,84
STUDY001,LB,STUDY001-SUBJ0015,68,L00068,BILI,Total Bilirubin,CHEMISTRY,0.6,mg/dL,0.1,1.2,0.6,0.6,mg/dL,0.1,1.2,NORMAL,,WEEK 12,7,4/24/2025,84
STUDY001,LB,STUDY001-SUBJ0015,69,L00069,ALP,Alkaline Phosphatase,CHEMISTRY,128.31,U/L,44,147,128.31,128.31,U/L,44,147,NORMAL,,WEEK 12,7,4/24/2025,84
STUDY001,LB,STUDY001-SUBJ0015,70,L00070,ALT,Alanine Aminotransferase,CHEMISTRY,5.2,U/L,7,56,5.2,5.2,U/L,7,56,LOW,,WEEK 12,7,4/24/2025,84
STUDY001,LB,STUDY001-SUBJ0015,71,L00071,HGB,Hemoglobin,HEMATOLOGY,14.75,g/dL,13.5,17.5,14.75,14.75,g/dL,13.5,17.5,NORMAL,,WEEK 16,8,5/22/2025,112
STUDY001,LB,STUDY001-SUBJ0015,72,L00072,HCT,Hematocrit,HEMATOLOGY,47.57,%,41,51,47.57,47.57,%,41,51,NORMAL,,WEEK 16,8,5/22/2025,112
STUDY001,LB,STUDY001-SUBJ0015,73,L00073,WBC,White Blood Cell Count,HEMATOLOGY,4.8,10^9/L,4.5,11,4.8,4.8,10^9/L,4.5,11,NORMAL,,WEEK 16,8,5/22/2025,112
STUDY001,LB,STUDY001-SUBJ0015,74,L00074,PLT,Platelet Count,HEMATOLOGY,309.37,10^9/L,150,450,309.37,309.37,10^9/L,150,450,NORMAL,,WEEK 16,8,5/22/2025,112
STUDY001,LB,STUDY001-SUBJ0015,75,L00075,GLUC,Glucose,CHEMISTRY,80.54,mg/dL,70,100,80.54,80.54,mg/dL,70,100,NORMAL,,WEEK 16,8,5/22/2025,112
STUDY001,LB,STUDY001-SUBJ0015,76,L00076,BUN,Blood Urea Nitrogen,CHEMISTRY,16.14,mg/dL,7,20,16.14,16.14,mg/dL,7,20,NORMAL,,WEEK 16,8,5/22/2025,112
STUDY001,LB,STUDY001-SUBJ0015,77,L00077,CREAT,Creatinine,CHEMISTRY,1.03,mg/dL,0.6,1.2,1.03,1.03,mg/dL,0.6,1.2,NORMAL,,WEEK 16,8,5/22/2025,112
STUDY001,LB,STUDY001-SUBJ0015,78,L00078,BILI,Total Bilirubin,CHEMISTRY,0.61,mg/dL,0.1,1.2,0.61,0.61,mg/dL,0.1,1.2,NORMAL,,WEEK 16,8,5/22/2025,112
STUDY001,LB,STUDY001-SUBJ0015,79,L00079,ALP,Alkaline Phosphatase,CHEMISTRY,125.34,U/L,44,147,125.34,125.34,U/L,44,147,NORMAL,,WEEK 16,8,5/22/2025,112
STUDY001,LB,STUDY001-SUBJ0015,80,L00080,ALT,Alanine Aminotransferase,CHEMISTRY,4.37,U/L,7,56,4.37,4.37,U/L,7,56,LOW,,WEEK 16,8,5/22/2025,112
STUDY001,LB,STUDY001-SUBJ0015,81,L00081,HGB,Hemoglobin,HEMATOLOGY,14.8,g/dL,13.5,17.5,14.8,14.8,g/dL,13.5,17.5,NORMAL,,END OF TREATMENT,9,6/19/2025,140
STUDY001,LB,STUDY001-SUBJ0015,82,L00082,HCT,Hematocrit,HEMATOLOGY,47.82,%,41,51,47.82,47.82,%,41,51,NORMAL,,END OF TREATMENT,9,6/19/2025,140
STUDY001,LB,STUDY001-SUBJ0015,83,L00083,WBC,White Blood Cell Count,HEMATOLOGY,4.69,10^9/L,4.5,11,4.69,4.69,10^9/L,4.5,11,NORMAL,,END OF TREATMENT,9,6/19/2025,140
STUDY001,LB,STUDY001-SUBJ0015,84,L00084,PLT,Platelet Count,HEMATOLOGY,301.39,10^9/L,150,450,301.39,301.39,10^9/L,150,450,NORMAL,,END OF TREATMENT,9,6/19/2025,140
STUDY001,LB,STUDY001-SUBJ0015,85,L00085,GLUC,Glucose,CHEMISTRY,79.14,mg/dL,70,100,79.14,79.14,mg/dL,70,100,NORMAL,,END OF TREATMENT,9,6/19/2025,140
STUDY001,LB,STUDY001-SUBJ0015,86,L00086,BUN,Blood Urea Nitrogen,CHEMISTRY,15.68,mg/dL,7,20,15.68,15.68,mg/dL,7,20,NORMAL,,END OF TREATMENT,9,6/19/2025,140
STUDY001,LB,STUDY001-SUBJ0015,87,L00087,CREAT,Creatinine,CHEMISTRY,1.03,mg/dL,0.6,1.2,1.03,1.03,mg/dL,0.6,1.2,NORMAL,,END OF TREATMENT,9,6/19/2025,140
STUDY001,LB,STUDY001-SUBJ0015,88,L00088,BILI,Total Bilirubin,CHEMISTRY,0.59,mg/dL,0.1,1.2,0.59,0.59,mg/dL,0.1,1.2,NORMAL,,END OF TREATMENT,9,6/19/2025,140
STUDY001,LB,STUDY001-SUBJ0015,89,L00089,ALP,Alkaline Phosphatase,CHEMISTRY,124.25,U/L,44,147,124.25,124.25,U/L,44,147,NORMAL,,END OF TREATMENT,9,6/19/2025,140
STUDY001,LB,STUDY001-SUBJ0015,90,L00090,ALT,Alanine Aminotransferase,CHEMISTRY,4.73,U/L,7,56,4.73,4.73,U/L,7,56,LOW,,END OF TREATMENT,9,6/19/2025,140
STUDY001,LB,STUDY001-SUBJ0016,1,L00001,HGB,Hemoglobin,HEMATOLOGY,15.8,g/dL,13.5,17.5,15.8,15.8,g/dL,13.5,17.5,NORMAL,,SCREENING,1,3/17/2025,-14
STUDY001,LB,STUDY001-SUBJ0016,2,L00002,HCT,Hematocrit,HEMATOLOGY,41.38,%,41,51,41.38,41.38,%,41,51,NORMAL,,SCREENING,1,3/17/2025,-14
STUDY001,LB,STUDY001-SUBJ0016,3,L00003,WBC,White Blood Cell Count,HEMATOLOGY,5.19,10^9/L,4.5,11,5.19,5.19,10^9/L,4.5,11,NORMAL,,SCREENING,1,3/17/2025,-14
STUDY001,LB,STUDY001-SUBJ0016,4,L00004,PLT,Platelet Count,HEMATOLOGY,206.07,10^9/L,150,450,206.07,206.07,10^9/L,150,450,NORMAL,,SCREENING,1,3/17/2025,-14
STUDY001,LB,STUDY001-SUBJ0016,5,L00005,GLUC,Glucose,CHEMISTRY,85.55,mg/dL,70,100,85.55,85.55,mg/dL,70,100,NORMAL,,SCREENING,1,3/17/2025,-14
STUDY001,LB,STUDY001-SUBJ0016,6,L00006,BUN,Blood Urea Nitrogen,CHEMISTRY,15.3,mg/dL,7,20,15.3,15.3,mg/dL,7,20,NORMAL,,SCREENING,1,3/17/2025,-14
STUDY001,LB,STUDY001-SUBJ0016,7,L00007,CREAT,Creatinine,CHEMISTRY,0.59,mg/dL,0.6,1.2,0.59,0.59,mg/dL,0.6,1.2,LOW,,SCREENING,1,3/17/2025,-14
STUDY001,LB,STUDY001-SUBJ0016,8,L00008,BILI,Total Bilirubin,CHEMISTRY,0.79,mg/dL,0.1,1.2,0.79,0.79,mg/dL,0.1,1.2,NORMAL,,SCREENING,1,3/17/2025,-14
STUDY001,LB,STUDY001-SUBJ0016,9,L00009,ALP,Alkaline Phosphatase,CHEMISTRY,112.69,U/L,44,147,112.69,112.69,U/L,44,147,NORMAL,,SCREENING,1,3/17/2025,-14
STUDY001,LB,STUDY001-SUBJ0016,10,L00010,ALT,Alanine Aminotransferase,CHEMISTRY,35.15,U/L,7,56,35.15,35.15,U/L,7,56,NORMAL,,SCREENING,1,3/17/2025,-14
STUDY001,LB,STUDY001-SUBJ0016,11,L00011,HGB,Hemoglobin,HEMATOLOGY,15.72,g/dL,13.5,17.5,15.72,15.72,g/dL,13.5,17.5,NORMAL,Y,BASELINE,2,3/31/2025,1
STUDY001,LB,STUDY001-SUBJ0016,12,L00012,HCT,Hematocrit,HEMATOLOGY,42,%,41,51,42,42,%,41,51,NORMAL,Y,BASELINE,2,3/31/2025,1
STUDY001,LB,STUDY001-SUBJ0016,13,L00013,WBC,White Blood Cell Count,HEMATOLOGY,5.34,10^9/L,4.5,11,5.34,5.34,10^9/L,4.5,11,NORMAL,Y,BASELINE,2,3/31/2025,1
STUDY001,LB,STUDY001-SUBJ0016,14,L00014,PLT,Platelet Count,HEMATOLOGY,194.91,10^9/L,150,450,194.91,194.91,10^9/L,150,450,NORMAL,Y,BASELINE,2,3/31/2025,1
STUDY001,LB,STUDY001-SUBJ0016,15,L00015,GLUC,Glucose,CHEMISTRY,86.79,mg/dL,70,100,86.79,86.79,mg/dL,70,100,NORMAL,Y,BASELINE,2,3/31/2025,1
STUDY001,LB,STUDY001-SUBJ0016,16,L00016,BUN,Blood Urea Nitrogen,CHEMISTRY,15.37,mg/dL,7,20,15.37,15.37,mg/dL,7,20,NORMAL,Y,BASELINE,2,3/31/2025,1
STUDY001,LB,STUDY001-SUBJ0016,17,L00017,CREAT,Creatinine,CHEMISTRY,0.61,mg/dL,0.6,1.2,0.61,0.61,mg/dL,0.6,1.2,NORMAL,Y,BASELINE,2,3/31/2025,1
STUDY001,LB,STUDY001-SUBJ0016,18,L00018,BILI,Total Bilirubin,CHEMISTRY,0.77,mg/dL,0.1,1.2,0.77,0.77,mg/dL,0.1,1.2,NORMAL,Y,BASELINE,2,3/31/2025,1
STUDY001,LB,STUDY001-SUBJ0016,19,L00019,ALP,Alkaline Phosphatase,CHEMISTRY,111.13,U/L,44,147,111.13,111.13,U/L,44,147,NORMAL,Y,BASELINE,2,3/31/2025,1
STUDY001,LB,STUDY001-SUBJ0016,20,L00020,ALT,Alanine Aminotransferase,CHEMISTRY,35.91,U/L,7,56,35.91,35.91,U/L,7,56,NORMAL,Y,BASELINE,2,3/31/2025,1
STUDY001,LB,STUDY001-SUBJ0016,21,L00021,HGB,Hemoglobin,HEMATOLOGY,15.97,g/dL,13.5,17.5,15.97,15.97,g/dL,13.5,17.5,NORMAL,,WEEK 1,3,4/6/2025,7
STUDY001,LB,STUDY001-SUBJ0016,22,L00022,HCT,Hematocrit,HEMATOLOGY,41.8,%,41,51,41.8,41.8,%,41,51,NORMAL,,WEEK 1,3,4/6/2025,7
STUDY001,LB,STUDY001-SUBJ0016,23,L00023,WBC,White Blood Cell Count,HEMATOLOGY,5.05,10^9/L,4.5,11,5.05,5.05,10^9/L,4.5,11,NORMAL,,WEEK 1,3,4/6/2025,7
STUDY001,LB,STUDY001-SUBJ0016,24,L00024,PLT,Platelet Count,HEMATOLOGY,195.84,10^9/L,150,450,195.84,195.84,10^9/L,150,450,NORMAL,,WEEK 1,3,4/6/2025,7
STUDY001,LB,STUDY001-SUBJ0016,25,L00025,GLUC,Glucose,CHEMISTRY,87.48,mg/dL,70,100,87.48,87.48,mg/dL,70,100,NORMAL,,WEEK 1,3,4/6/2025,7
STUDY001,LB,STUDY001-SUBJ0016,26,L00026,BUN,Blood Urea Nitrogen,CHEMISTRY,15.2,mg/dL,7,20,15.2,15.2,mg/dL,7,20,NORMAL,,WEEK 1,3,4/6/2025,7
STUDY001,LB,STUDY001-SUBJ0016,27,L00027,CREAT,Creatinine,CHEMISTRY,0.63,mg/dL,0.6,1.2,0.63,0.63,mg/dL,0.6,1.2,NORMAL,,WEEK 1,3,4/6/2025,7
STUDY001,LB,STUDY001-SUBJ0016,28,L00028,BILI,Total Bilirubin,CHEMISTRY,0.77,mg/dL,0.1,1.2,0.77,0.77,mg/dL,0.1,1.2,NORMAL,,WEEK 1,3,4/6/2025,7
STUDY001,LB,STUDY001-SUBJ0016,29,L00029,ALP,Alkaline Phosphatase,CHEMISTRY,113.63,U/L,44,147,113.63,113.63,U/L,44,147,NORMAL,,WEEK 1,3,4/6/2025,7
STUDY001,LB,STUDY001-SUBJ0016,30,L00030,ALT,Alanine Aminotransferase,CHEMISTRY,35.95,U/L,7,56,35.95,35.95,U/L,7,56,NORMAL,,WEEK 1,3,4/6/2025,7
STUDY001,LB,STUDY001-SUBJ0016,31,L00031,HGB,Hemoglobin,HEMATOLOGY,15.77,g/dL,13.5,17.5,15.77,15.77,g/dL,13.5,17.5,NORMAL,,WEEK 2,4,4/13/2025,14
STUDY001,LB,STUDY001-SUBJ0016,32,L00032,HCT,Hematocrit,HEMATOLOGY,41.71,%,41,51,41.71,41.71,%,41,51,NORMAL,,WEEK 2,4,4/13/2025,14
