STUDYID,DOMAIN,USUBJID,SUBJID,RFSTDTC,RFENDTC,RFXSTDTC,RFXENDTC,RFICDTC,RFPENDTC,DTHDTC,DTHFL,SITEID,AGE,AGEU,SEX,RACE,ETHNIC,ARMCD,ARM,ACTARMCD,ACTARM,COUNTRY,DMDTC,DMDY
STUDY001,DM,STUDY001-SUBJ0001,SUBJ0001,2025-09-03,2025-12-20,2025-11-23,2025-12-09,2025-02-28,2025-12-20,,,16,59,YEARS,M,BLACK OR AFRICAN AMERICAN,NOT HISPANIC OR LATINO,ARM3,Treatment 3,ARM3,Treatment 3,NZ,2025-09-13,7
STUDY001,DM,STUDY001-SUBJ0002,SUBJ0002,2025-06-02,2025-12-15,2025-10-16,2025-12-29,2025-01-11,2025-12-15,,,33,33,YEARS,F,BLACK OR AFRICAN AMERICAN,NOT HISPANIC OR LATINO,ARM3,Treatment 3,ARM3,Treatment 3,BI,2025-08-11,19
STUDY001,DM,STUDY001-SUBJ0003,SUBJ0003,2025-03-03,2026-01-04,2025-04-21,2025-12-17,2025-11-01,2026-01-04,,,5,60,YEARS,M,WHITE,NOT HISPANIC OR LATINO,ARM3,Treatment 3,ARM3,Treatment 3,MK,2025-04-14,9
STUDY001,DM,STUDY001-SUBJ0004,SUBJ0004,2025-02-28,2025-12-15,2025-11-04,2025-12-16,2025-02-06,2025-12-15,,,39,57,YEARS,F,AMERICAN INDIAN OR ALASKA NATIVE,HISPANIC OR LATINO,ARM1,Treatment 1,ARM1,Treatment 1,SI,2025-11-01,9
STUDY001,DM,STUDY001-SUBJ0005,SUBJ0005,2025-09-11,2026-01-01,2025-09-11,2026-01-04,2025-09-16,2026-01-01,,,39,27,YEARS,M,WHITE,NOT HISPANIC OR LATINO,ARM1,Treatment 1,ARM1,Treatment 1,IS,2025-09-10,30
STUDY001,DM,STUDY001-SUBJ0006,SUBJ0006,2025-12-01,2025-12-08,2025-07-21,2025-12-10,2025-09-28,2025-12-08,,,10,62,YEARS,M,AMERICAN INDIAN OR ALASKA NATIVE,HISPANIC OR LATINO,ARM2,Treatment 2,ARM2,Treatment 2,AU,2025-11-22,6
STUDY001,DM,STUDY001-SUBJ0007,SUBJ0007,2025-05-25,2025-12-08,2025-02-16,2025-12-16,2025-10-26,2025-12-08,,,49,34,YEARS,M,OTHER,NOT HISPANIC OR LATINO,ARM1,Treatment 1,ARM1,Treatment 1,MZ,2025-05-25,4
STUDY001,DM,STUDY001-SUBJ0008,SUBJ0008,2025-08-06,2025-12-26,2025-08-20,2025-12-30,2025-02-17,2025-12-26,,,22,54,YEARS,F,ASIAN,HISPANIC OR LATINO,ARM2,Treatment 2,ARM2,Treatment 2,PA,2025-10-08,11
STUDY001,DM,STUDY001-SUBJ0009,SUBJ0009,2025-06-10,2026-01-03,2025-04-19,2025-12-19,2025-08-02,2026-01-03,,,23,78,YEARS,F,WHITE,HISPANIC OR LATINO,ARM3,Treatment 3,ARM3,Treatment 3,LR,2025-11-25,29
STUDY001,DM,STUDY001-SUBJ0010,SUBJ0010,2025-09-17,2025-12-12,2025-04-27,2025-12-31,2025-06-30,2025-12-12,,,32,27,YEARS,M,AMERICAN INDIAN OR ALASKA NATIVE,HISPANIC OR LATINO,ARM1,Treatment 1,ARM1,Treatment 1,LB,2025-10-24,8
STUDY001,DM,STUDY001-SUBJ0011,SUBJ0011,2025-03-16,2025-12-15,2025-11-03,2026-01-01,2025-10-25,2025-12-15,,,22,68,YEARS,F,OTHER,NOT HISPANIC OR LATINO,ARM2,Treatment 2,ARM2,Treatment 2,MC,2025-05-02,28
STUDY001,DM,STUDY001-SUBJ0012,SUBJ0012,2025-09-07,2025-12-31,2025-10-09,2025-12-23,2025-01-12,2025-12-31,,,2,35,YEARS,F,BLACK OR AFRICAN AMERICAN,HISPANIC OR LATINO,ARM2,Treatment 2,ARM2,Treatment 2,CZ,2025-06-19,11
STUDY001,DM,STUDY001-SUBJ0013,SUBJ0013,2025-10-17,2025-12-18,2025-01-23,2025-12-28,2025-07-15,2025-12-18,,,1,41,YEARS,M,OTHER,HISPANIC OR LATINO,ARM2,Treatment 2,ARM2,Treatment 2,KR,2025-04-19,14
STUDY001,DM,STUDY001-SUBJ0014,SUBJ0014,2025-12-02,2025-12-12,2025-11-14,2025-12-11,2025-06-01,2025-12-12,,,8,35,YEARS,F,BLACK OR AFRICAN AMERICAN,NOT HISPANIC OR LATINO,ARM3,Treatment 3,ARM3,Treatment 3,PA,2025-11-17,30
STUDY001,DM,STUDY001-SUBJ0015,SUBJ0015,2025-11-03,2026-01-06,2025-06-27,2025-12-14,2025-06-03,2026-01-06,,,20,36,YEARS,M,AMERICAN INDIAN OR ALASKA NATIVE,HISPANIC OR LATINO,ARM1,Treatment 1,ARM1,Treatment 1,VN,2025-03-02,15
STUDY001,DM,STUDY001-SUBJ0016,SUBJ0016,2025-06-13,2025-12-27,2025-04-21,2025-12-15,2025-06-04,2025-12-27,,,40,46,YEARS,F,AMERICAN INDIAN OR ALASKA NATIVE,NOT HISPANIC OR LATINO,ARM2,Treatment 2,ARM2,Treatment 2,SR,2025-03-24,14
STUDY001,DM,STUDY001-SUBJ0017,SUBJ0017,2025-11-20,2025-12-14,2025-05-20,2025-12-08,2025-03-31,2025-12-14,,,24,25,YEARS,F,OTHER,NOT HISPANIC OR LATINO,ARM2,Treatment 2,ARM3,Treatment 3,AM,2025-05-31,9
STUDY001,DM,STUDY001-SUBJ0018,SUBJ0018,2025-10-25,2025-12-17,2025-05-19,2025-12-19,2025-10-07,2025-12-17,,,30,72,YEARS,F,AMERICAN INDIAN OR ALASKA NATIVE,NOT HISPANIC OR LATINO,ARM3,Treatment 3,ARM3,Treatment 3,SY,2025-05-23,15
STUDY001,DM,STUDY001-SUBJ0019,SUBJ0019,2025-01-10,2025-12-16,2025-07-03,2025-12-23,2025-06-14,2025-12-16,,,2,69,YEARS,F,AMERICAN INDIAN OR ALASKA NATIVE,NOT HISPANIC OR LATINO,ARM3,Treatment 3,ARM3,Treatment 3,ES,2025-09-04,30
STUDY001,DM,STUDY001-SUBJ0020,SUBJ0020,2025-09-05,2025-12-29,2025-03-09,2025-12-29,2025-08-16,2025-12-29,,,36,39,YEARS,F,BLACK OR AFRICAN AMERICAN,NOT HISPANIC OR LATINO,ARM1,Treatment 1,ARM1,Treatment 1,PY,2025-05-08,3
STUDY001,DM,STUDY001-SUBJ0021,SUBJ0021,2025-10-29,2025-12-20,2025-08-11,2025-12-29,2025-09-25,2025-12-20,,,22,37,YEARS,M,BLACK OR AFRICAN AMERICAN,NOT HISPANIC OR LATINO,ARM2,Treatment 2,ARM2,Treatment 2,WS,2025-10-12,1
STUDY001,DM,STUDY001-SUBJ0022,SUBJ0022,2025-06-28,2025-12-26,2025-08-13,2025-12-13,2025-10-09,2025-12-26,,,37,40,YEARS,F,BLACK OR AFRICAN AMERICAN,HISPANIC OR LATINO,ARM1,Treatment 1,ARM1,Treatment 1,AE,2025-02-27,11
STUDY001,DM,STUDY001-SUBJ0023,SUBJ0023,2025-04-22,2025-12-27,2025-11-13,2025-12-16,2025-07-20,2025-12-27,,,26,66,YEARS,M,ASIAN,HISPANIC OR LATINO,ARM3,Treatment 3,ARM3,Treatment 3,NR,2025-03-23,12
STUDY001,DM,STUDY001-SUBJ0024,SUBJ0024,2025-05-03,2026-01-02,2025-07-31,2025-12-10,2025-05-29,2026-01-02,,,19,27,YEARS,F,BLACK OR AFRICAN AMERICAN,NOT HISPANIC OR LATINO,ARM1,Treatment 1,ARM1,Treatment 1,QA,2025-09-29,24
STUDY001,DM,STUDY001-SUBJ0025,SUBJ0025,2025-05-11,2025-12-22,2025-11-05,2026-01-04,2025-01-24,2025-12-22,,,18,80,YEARS,F,BLACK OR AFRICAN AMERICAN,NOT HISPANIC OR LATINO,ARM3,Treatment 3,ARM3,Treatment 3,AR,2025-10-26,29
STUDY001,DM,STUDY001-SUBJ0026,SUBJ0026,2025-06-18,2025-12-25,2025-04-09,2025-12-12,2025-11-04,2025-12-25,,,30,18,YEARS,F,AMERICAN INDIAN OR ALASKA NATIVE,NOT HISPANIC OR LATINO,ARM2,Treatment 2,ARM2,Treatment 2,CR,2025-06-29,15
STUDY001,DM,STUDY001-SUBJ0027,SUBJ0027,2025-02-07,2025-12-13,2025-06-21,2025-12-14,2025-02-26,2025-12-13,,,26,64,YEARS,F,ASIAN,HISPANIC OR LATINO,ARM2,Treatment 2,ARM2,Treatment 2,MC,2025-06-30,18
STUDY001,DM,STUDY001-SUBJ0028,SUBJ0028,2025-07-26,2025-12-12,2025-04-29,2025-12-23,2025-01-06,2025-12-12,,,13,30,YEARS,F,ASIAN,NOT HISPANIC OR LATINO,ARM1,Treatment 1,ARM1,Treatment 1,DZ,2025-07-02,1
STUDY001,DM,STUDY001-SUBJ0029,SUBJ0029,2025-10-15,2025-12-27,2025-07-13,2025-12-10,2025-03-25,2025-12-27,,,23,58,YEARS,F,BLACK OR AFRICAN AMERICAN,NOT HISPANIC OR LATINO,ARM1,Treatment 1,ARM1,Treatment 1,UY,2025-07-04,15
STUDY001,DM,STUDY001-SUBJ0030,SUBJ0030,2025-05-12,2025-12-13,2025-03-31,2025-12-10,2025-04-29,2025-12-13,,,1,38,YEARS,F,WHITE,NOT HISPANIC OR LATINO,ARM1,Treatment 1,ARM1,Treatment 1,HU,2025-08-20,24
STUDY001,DM,STUDY001-SUBJ0031,SUBJ0031,2025-06-26,2025-12-28,2025-08-03,2025-12-27,2025-12-07,2025-12-28,,,2,53,YEARS,M,AMERICAN INDIAN OR ALASKA NATIVE,HISPANIC OR LATINO,ARM1,Treatment 1,ARM3,Treatment 3,NG,2025-01-31,27
STUDY001,DM,STUDY001-SUBJ0032,SUBJ0032,2025-05-23,2026-01-02,2025-04-26,2025-12-15,2025-07-21,2026-01-02,,,39,46,YEARS,M,WHITE,NOT HISPANIC OR LATINO,ARM1,Treatment 1,ARM1,Treatment 1,BB,2025-05-20,19
STUDY001,DM,STUDY001-SUBJ0033,SUBJ0033,2025-08-02,2025-12-21,2025-07-24,2025-12-31,2025-08-15,2025-12-21,,,47,51,YEARS,F,AMERICAN INDIAN OR ALASKA NATIVE,NOT HISPANIC OR LATINO,ARM2,Treatment 2,ARM2,Treatment 2,MH,2025-05-17,10
STUDY001,DM,STUDY001-SUBJ0034,SUBJ0034,2025-04-15,2025-12-28,2025-10-05,2025-12-12,2025-04-30,2025-12-28,,,34,49,YEARS,F,OTHER,HISPANIC OR LATINO,ARM3,Treatment 3,ARM3,Treatment 3,CL,2025-08-05,26
STUDY001,DM,STUDY001-SUBJ0035,SUBJ0035,2025-12-01,2026-01-03,2025-11-07,2025-12-12,2025-10-01,2026-01-03,,,6,66,YEARS,F,ASIAN,HISPANIC OR LATINO,ARM3,Treatment 3,ARM3,Treatment 3,HR,2025-01-17,12
STUDY001,DM,STUDY001-SUBJ0036,SUBJ0036,2025-06-01,2025-12-28,2025-11-20,2025-12-22,2025-04-13,2025-12-28,,,15,45,YEARS,M,WHITE,NOT HISPANIC OR LATINO,ARM2,Treatment 2,ARM2,Treatment 2,NP,2025-02-07,5
STUDY001,DM,STUDY001-SUBJ0037,SUBJ0037,2025-02-07,2026-01-04,2025-12-07,2025-12-22,2025-07-17,2026-01-04,,,16,59,YEARS,M,OTHER,HISPANIC OR LATINO,ARM3,Treatment 3,ARM3,Treatment 3,TG,2025-08-23,30
STUDY001,DM,STUDY001-SUBJ0038,SUBJ0038,2025-11-06,2026-01-02,2025-08-29,2025-12-12,2025-08-17,2026-01-02,,,39,48,YEARS,M,ASIAN,HISPANIC OR LATINO,ARM1,Treatment 1,ARM2,Treatment 2,QA,2025-01-11,21
STUDY001,DM,STUDY001-SUBJ0039,SUBJ0039,2025-03-22,2025-12-15,2025-08-03,2026-01-04,2025-07-03,2025-12-15,,,28,58,YEARS,M,OTHER,NOT HISPANIC OR LATINO,ARM3,Treatment 3,ARM3,Treatment 3,VE,2025-06-11,12
STUDY001,DM,STUDY001-SUBJ0040,SUBJ0040,2025-03-30,2025-12-16,2025-05-30,2025-12-20,2025-11-18,2025-12-16,,,9,59,YEARS,M,AMERICAN INDIAN OR ALASKA NATIVE,HISPANIC OR LATINO,ARM3,Treatment 3,ARM3,Treatment 3,BT,2025-02-22,6
STUDY001,DM,STUDY001-SUBJ0041,SUBJ0041,2025-11-26,2025-12-14,2025-10-02,2025-12-19,2025-11-11,2025-12-14,,,19,36,YEARS,F,WHITE,HISPANIC OR LATINO,ARM2,Treatment 2,ARM2,Treatment 2,SB,2025-03-11,19
STUDY001,DM,STUDY001-SUBJ0042,SUBJ0042,2025-11-22,2025-12-29,2025-03-25,2026-01-01,2025-11-13,2025-12-29,,,5,37,YEARS,F,AMERICAN INDIAN OR ALASKA NATIVE,HISPANIC OR LATINO,ARM2,Treatment 2,ARM2,Treatment 2,JM,2025-01-10,12
STUDY001,DM,STUDY001-SUBJ0043,SUBJ0043,2025-03-31,2025-12-31,2025-03-15,2026-01-04,2025-03-11,2025-12-31,,,25,18,YEARS,M,WHITE,HISPANIC OR LATINO,ARM1,Treatment 1,ARM1,Treatment 1,DO,2025-10-07,26
STUDY001,DM,STUDY001-SUBJ0044,SUBJ0044,2025-03-24,2025-12-24,2025-11-26,2025-12-10,2025-03-01,2025-12-24,,,15,51,YEARS,M,BLACK OR AFRICAN AMERICAN,NOT HISPANIC OR LATINO,ARM2,Treatment 2,ARM2,Treatment 2,SV,2025-06-12,30
STUDY001,DM,STUDY001-SUBJ0045,SUBJ0045,2025-04-15,2025-12-13,2025-11-19,2025-12-31,2025-06-19,2025-12-13,,,10,29,YEARS,F,ASIAN,NOT HISPANIC OR LATINO,ARM3,Treatment 3,ARM3,Treatment 3,MX,2025-07-06,1
STUDY001,DM,STUDY001-SUBJ0046,SUBJ0046,2025-09-23,2025-12-24,2025-11-26,2025-12-31,2025-11-26,2025-12-24,,,17,64,YEARS,F,ASIAN,HISPANIC OR LATINO,ARM1,Treatment 1,ARM1,Treatment 1,KW,2025-01-26,4
STUDY001,DM,STUDY001-SUBJ0047,SUBJ0047,2025-09-01,2025-12-31,2025-01-15,2026-01-03,2025-09-17,2025-12-31,,,1,20,YEARS,F,AMERICAN INDIAN OR ALASKA NATIVE,NOT HISPANIC OR LATINO,ARM1,Treatment 1,ARM1,Treatment 1,FM,2025-10-20,16
STUDY001,DM,STUDY001-SUBJ0048,SUBJ0048,2025-12-07,2025-12-17,2025-03-18,2026-01-01,2025-02-25,2025-12-17,,,14,65,YEARS,M,WHITE,HISPANIC OR LATINO,ARM3,Treatment 3,ARM3,Treatment 3,LV,2025-10-14,4
STUDY001,DM,STUDY001-SUBJ0049,SUBJ0049,2025-09-29,2025-12-20,2025-09-07,2025-12-16,2025-09-22,2025-12-20,,,8,39,YEARS,M,ASIAN,NOT HISPANIC OR LATINO,ARM1,Treatment 1,ARM1,Treatment 1,MC,2025-04-13,27
STUDY001,DM,STUDY001-SUBJ0050,SUBJ0050,2025-02-08,2025-12-11,2025-09-15,2025-12-21,2025-03-26,2025-12-11,,,45,43,YEARS,M,OTHER,NOT HISPANIC OR LATINO,ARM2,Treatment 2,ARM1,Treatment 1,KW,2025-05-05,26
STUDY001,DM,STUDY001-SUBJ0051,SUBJ0051,2025-03-14,2025-12-24,2025-02-02,2026-01-06,2025-09-19,2025-12-24,,,13,57,YEARS,F,WHITE,HISPANIC OR LATINO,ARM2,Treatment 2,ARM2,Treatment 2,IQ,2025-06-11,25
STUDY001,DM,STUDY001-SUBJ0052,SUBJ0052,2025-11-29,2025-12-08,2025-03-03,2025-12-14,2025-11-12,2025-12-08,,,12,79,YEARS,F,ASIAN,NOT HISPANIC OR LATINO,ARM1,Treatment 1,ARM1,Treatment 1,DK,2025-04-10,16
STUDY001,DM,STUDY001-SUBJ0053,SUBJ0053,2025-01-31,2025-12-23,2025-10-17,2025-12-23,2025-02-28,2025-12-23,,,35,52,YEARS,M,BLACK OR AFRICAN AMERICAN,HISPANIC OR LATINO,ARM1,Treatment 1,ARM1,Treatment 1,AG,2025-02-27,29
STUDY001,DM,STUDY001-SUBJ0054,SUBJ0054,2025-05-20,2026-01-06,2025-08-28,2026-01-04,2025-08-01,2026-01-06,,,21,41,YEARS,M,BLACK OR AFRICAN AMERICAN,NOT HISPANIC OR LATINO,ARM3,Treatment 3,ARM3,Treatment 3,GT,2025-10-21,18
STUDY001,DM,STUDY001-SUBJ0055,SUBJ0055,2025-07-18,2025-12-11,2025-03-28,2025-12-19,2025-04-09,2025-12-11,,,22,48,YEARS,M,OTHER,NOT HISPANIC OR LATINO,ARM3,Treatment 3,ARM3,Treatment 3,BE,2025-11-29,10
STUDY001,DM,STUDY001-SUBJ0056,SUBJ0056,2025-04-04,2025-12-16,2025-12-06,2025-12-20,2025-02-08,2025-12-16,,,32,78,YEARS,M,BLACK OR AFRICAN AMERICAN,NOT HISPANIC OR LATINO,ARM2,Treatment 2,ARM2,Treatment 2,MX,2025-11-10,16
STUDY001,DM,STUDY001-SUBJ0057,SUBJ0057,2025-05-30,2025-12-14,2025-12-06,2026-01-05,2025-05-17,2025-12-14,,,10,43,YEARS,F,WHITE,NOT HISPANIC OR LATINO,ARM2,Treatment 2,ARM2,Treatment 2,IT,2025-02-10,7
STUDY001,DM,STUDY001-SUBJ0058,SUBJ0058,2025-09-19,2025-12-13,2025-09-16,2025-12-21,2025-04-02,2025-12-13,,,44,42,YEARS,F,OTHER,NOT HISPANIC OR LATINO,ARM2,Treatment 2,ARM2,Treatment 2,MX,2025-05-31,1
STUDY001,DM,STUDY001-SUBJ0059,SUBJ0059,2025-08-20,2025-12-24,2025-03-08,2025-12-12,2025-02-16,2025-12-24,,,1,38,YEARS,F,OTHER,HISPANIC OR LATINO,ARM3,Treatment 3,ARM3,Treatment 3,TJ,2025-11-09,9
STUDY001,DM,STUDY001-SUBJ0060,SUBJ0060,2025-06-28,2025-12-24,2025-08-18,2025-12-18,2025-08-19,2025-12-24,,,19,33,YEARS,F,OTHER,HISPANIC OR LATINO,ARM3,Treatment 3,ARM3,Treatment 3,AU,2025-09-18,22
STUDY001,DM,STUDY001-SUBJ0061,SUBJ0061,2025-04-28,2025-12-24,2025-10-02,2025-12-20,2025-06-21,2025-12-24,,,32,77,YEARS,F,AMERICAN INDIAN OR ALASKA NATIVE,NOT HISPANIC OR LATINO,ARM1,Treatment 1,ARM1,Treatment 1,RU,2025-07-10,13
STUDY001,DM,STUDY001-SUBJ0062,SUBJ0062,2025-06-25,2025-12-30,2025-05-16,2025-12-29,2025-11-19,2025-12-30,,,50,39,YEARS,M,BLACK OR AFRICAN AMERICAN,HISPANIC OR LATINO,ARM1,Treatment 1,ARM1,Treatment 1,TN,2025-05-31,11
STUDY001,DM,STUDY001-SUBJ0063,SUBJ0063,2025-03-08,2025-12-28,2025-11-15,2025-12-08,2025-03-02,2025-12-28,,,40,41,YEARS,F,WHITE,HISPANIC OR LATINO,ARM3,Treatment 3,ARM3,Treatment 3,BD,2025-06-13,10
STUDY001,DM,STUDY001-SUBJ0064,SUBJ0064,2025-04-26,2025-12-24,2025-05-13,2026-01-04,2025-11-03,2025-12-24,,,30,18,YEARS,F,BLACK OR AFRICAN AMERICAN,HISPANIC OR LATINO,ARM3,Treatment 3,ARM3,Treatment 3,BJ,2025-01-19,16
STUDY001,DM,STUDY001-SUBJ0065,SUBJ0065,2025-03-24,2025-12-10,2025-02-19,2025-12-22,2025-03-05,2025-12-10,,,34,47,YEARS,F,WHITE,HISPANIC OR LATINO,ARM2,Treatment 2,ARM2,Treatment 2,SV,2025-03-19,30
STUDY001,DM,STUDY001-SUBJ0066,SUBJ0066,2025-08-10,2025-12-11,2025-04-12,2025-12-23,2025-08-25,2025-12-11,,,5,60,YEARS,M,OTHER,NOT HISPANIC OR LATINO,ARM3,Treatment 3,ARM3,Treatment 3,CG,2025-05-08,11
STUDY001,DM,STUDY001-SUBJ0067,SUBJ0067,2025-09-25,2025-12-27,2025-03-11,2026-01-01,2025-12-04,2025-12-27,,,2,23,YEARS,M,BLACK OR AFRICAN AMERICAN,NOT HISPANIC OR LATINO,ARM2,Treatment 2,ARM2,Treatment 2,GM,2025-05-30,26
STUDY001,DM,STUDY001-SUBJ0068,SUBJ0068,2025-01-30,2025-12-13,2025-08-08,2026-01-04,2025-11-05,2025-12-13,,,12,74,YEARS,F,ASIAN,HISPANIC OR LATINO,ARM2,Treatment 2,ARM2,Treatment 2,AO,2025-10-30,4
STUDY001,DM,STUDY001-SUBJ0069,SUBJ0069,2025-10-12,2025-12-19,2025-06-17,2025-12-18,2025-10-07,2025-12-19,,,33,41,YEARS,M,BLACK OR AFRICAN AMERICAN,NOT HISPANIC OR LATINO,ARM1,Treatment 1,ARM1,Treatment 1,BG,2025-05-10,6
STUDY001,DM,STUDY001-SUBJ0070,SUBJ0070,2025-10-15,2025-12-26,2025-03-16,2026-01-04,2025-09-07,2025-12-26,,,34,21,YEARS,F,BLACK OR AFRICAN AMERICAN,HISPANIC OR LATINO,ARM3,Treatment 3,ARM3,Treatment 3,CY,2025-07-03,14
STUDY001,DM,STUDY001-SUBJ0071,SUBJ0071,2025-12-06,2025-12-17,2025-10-08,2025-12-13,2025-11-29,2025-12-17,,,40,67,YEARS,F,AMERICAN INDIAN OR ALASKA NATIVE,NOT HISPANIC OR LATINO,ARM3,Treatment 3,ARM3,Treatment 3,BG,2025-05-04,17
STUDY001,DM,STUDY001-SUBJ0072,SUBJ0072,2025-01-14,2025-12-12,2025-04-26,2025-12-24,2025-11-27,2025-12-12,,,49,60,YEARS,M,AMERICAN INDIAN OR ALASKA NATIVE,HISPANIC OR LATINO,ARM2,Treatment 2,ARM2,Treatment 2,MC,2025-03-03,16
STUDY001,DM,STUDY001-SUBJ0073,SUBJ0073,2025-04-26,2025-12-28,2025-09-10,2025-12-31,2025-01-12,2025-12-28,,,47,40,YEARS,M,AMERICAN INDIAN OR ALASKA NATIVE,HISPANIC OR LATINO,ARM3,Treatment 3,ARM3,Treatment 3,CZ,2025-08-08,3
STUDY001,DM,STUDY001-SUBJ0074,SUBJ0074,2025-06-29,2025-12-29,2025-08-08,2025-12-08,2025-10-09,2025-12-29,,,22,72,YEARS,F,ASIAN,HISPANIC OR LATINO,ARM2,Treatment 2,ARM2,Treatment 2,GD,2025-11-06,9
STUDY001,DM,STUDY001-SUBJ0075,SUBJ0075,2025-07-02,2025-12-24,2025-09-05,2025-12-13,2025-06-28,2025-12-24,,,29,78,YEARS,M,OTHER,NOT HISPANIC OR LATINO,ARM1,Treatment 1,ARM1,Treatment 1,AZ,2025-08-25,5
STUDY001,DM,STUDY001-SUBJ0076,SUBJ0076,2025-08-06,2025-12-17,2025-06-14,2025-12-17,2025-03-17,2025-12-17,,,42,53,YEARS,F,AMERICAN INDIAN OR ALASKA NATIVE,NOT HISPANIC OR LATINO,ARM2,Treatment 2,ARM2,Treatment 2,KH,2025-11-11,3
STUDY001,DM,STUDY001-SUBJ0077,SUBJ0077,2025-03-24,2025-12-20,2025-12-06,2025-12-08,2025-11-02,2025-12-20,,,6,29,YEARS,M,BLACK OR AFRICAN AMERICAN,HISPANIC OR LATINO,ARM3,Treatment 3,ARM3,Treatment 3,GB,2025-02-17,18
STUDY001,DM,STUDY001-SUBJ0078,SUBJ0078,2025-08-21,2025-12-08,2025-02-28,2025-12-13,2025-04-09,2025-12-08,,,20,40,YEARS,M,AMERICAN INDIAN OR ALASKA NATIVE,HISPANIC OR LATINO,ARM1,Treatment 1,ARM1,Treatment 1,HT,2025-11-10,18
STUDY001,DM,STUDY001-SUBJ0079,SUBJ0079,2025-11-21,2025-12-13,2025-10-11,2025-12-29,2025-08-17,2025-12-13,,,29,64,YEARS,M,WHITE,HISPANIC OR LATINO,ARM3,Treatment 3,ARM3,Treatment 3,BZ,2025-03-23,19
STUDY001,DM,STUDY001-SUBJ0080,SUBJ0080,2025-07-03,2026-01-01,2025-10-05,2025-12-08,2025-06-01,2026-01-01,,,23,65,YEARS,M,WHITE,HISPANIC OR LATINO,ARM3,Treatment 3,ARM3,Treatment 3,TJ,2025-06-11,26
STUDY001,DM,STUDY001-SUBJ0081,SUBJ0081,2025-07-09,2025-12-21,2025-06-28,2025-12-16,2025-07-01,2025-12-21,,,27,42,YEARS,M,BLACK OR AFRICAN AMERICAN,NOT HISPANIC OR LATINO,ARM2,Treatment 2,ARM2,Treatment 2,IE,2025-12-06,25
STUDY001,DM,STUDY001-SUBJ0082,SUBJ0082,2025-05-20,2025-12-19,2025-09-22,2025-12-31,2025-11-09,2025-12-19,,,9,62,YEARS,M,WHITE,HISPANIC OR LATINO,ARM2,Treatment 2,ARM2,Treatment 2,TR,2025-08-10,9
STUDY001,DM,STUDY001-SUBJ0083,SUBJ0083,2025-03-08,2025-12-17,2025-07-25,2025-12-24,2025-08-17,2025-12-17,,,11,60,YEARS,M,OTHER,NOT HISPANIC OR LATINO,ARM2,Treatment 2,ARM2,Treatment 2,KG,2025-03-01,7
STUDY001,DM,STUDY001-SUBJ0084,SUBJ0084,2025-09-10,2025-12-20,2025-08-07,2026-01-03,2025-04-05,2025-12-20,,,40,43,YEARS,M,OTHER,HISPANIC OR LATINO,ARM3,Treatment 3,ARM3,Treatment 3,CV,2025-02-19,12
STUDY001,DM,STUDY001-SUBJ0085,SUBJ0085,2025-07-26,2025-12-11,2025-01-08,2025-12-24,2025-08-24,2025-12-11,,,35,47,YEARS,M,OTHER,NOT HISPANIC OR LATINO,ARM1,Treatment 1,ARM1,Treatment 1,BG,2025-08-10,13
STUDY001,DM,STUDY001-SUBJ0086,SUBJ0086,2025-09-14,2025-12-20,2025-09-04,2025-12-29,2025-08-31,2025-12-20,,,23,57,YEARS,F,OTHER,HISPANIC OR LATINO,ARM1,Treatment 1,ARM1,Treatment 1,GQ,2025-04-02,5
STUDY001,DM,STUDY001-SUBJ0087,SUBJ0087,2025-11-21,2025-12-30,2025-07-17,2025-12-18,2025-07-13,2025-12-30,,,17,32,YEARS,F,WHITE,HISPANIC OR LATINO,ARM2,Treatment 2,ARM2,Treatment 2,GW,2025-03-14,28
STUDY001,DM,STUDY001-SUBJ0088,SUBJ0088,2025-10-30,2026-01-05,2025-09-15,2025-12-14,2025-03-31,2026-01-05,,,31,31,YEARS,M,AMERICAN INDIAN OR ALASKA NATIVE,NOT HISPANIC OR LATINO,ARM1,Treatment 1,ARM1,Treatment 1,AF,2025-04-12,13
STUDY001,DM,STUDY001-SUBJ0089,SUBJ0089,2025-02-13,2026-01-02,2025-07-28,2025-12-22,2025-10-05,2026-01-02,,,48,37,YEARS,M,WHITE,HISPANIC OR LATINO,ARM1,Treatment 1,ARM1,Treatment 1,GM,2025-11-23,24
STUDY001,DM,STUDY001-SUBJ0090,SUBJ0090,2025-09-15,2025-12-18,2025-02-18,2025-12-24,2025-07-03,2025-12-18,,,17,52,YEARS,M,BLACK OR AFRICAN AMERICAN,HISPANIC OR LATINO,ARM2,Treatment 2,ARM2,Treatment 2,PW,2025-10-30,11
STUDY001,DM,STUDY001-SUBJ0091,SUBJ0091,2025-07-24,2025-12-28,2025-08-22,2026-01-03,2025-05-19,2025-12-28,,,48,52,YEARS,F,OTHER,HISPANIC OR LATINO,ARM1,Treatment 1,ARM1,Treatment 1,IN,2025-08-08,5
STUDY001,DM,STUDY001-SUBJ0092,SUBJ0092,2025-02-03,2025-12-18,2025-09-18,2026-01-03,2025-06-04,2025-12-18,,,43,40,YEARS,F,BLACK OR AFRICAN AMERICAN,HISPANIC OR LATINO,ARM2,Treatment 2,ARM2,Treatment 2,MA,2025-08-19,27
STUDY001,DM,STUDY001-SUBJ0093,SUBJ0093,2025-04-01,2025-12-11,2025-02-23,2025-12-14,2025-10-11,2025-12-11,,,41,23,YEARS,F,BLACK OR AFRICAN AMERICAN,HISPANIC OR LATINO,ARM1,Treatment 1,ARM1,Treatment 1,GD,2025-01-12,13
STUDY001,DM,STUDY001-SUBJ0094,SUBJ0094,2025-06-20,2025-12-08,2025-04-03,2025-12-23,2025-03-03,2025-12-08,,,49,70,YEARS,F,AMERICAN INDIAN OR ALASKA NATIVE,HISPANIC OR LATINO,ARM2,Treatment 2,ARM2,Treatment 2,TM,2025-11-01,16
STUDY001,DM,STUDY001-SUBJ0095,SUBJ0095,2025-02-03,2025-12-12,2025-06-03,2025-12-26,2025-10-11,2025-12-12,,,36,48,YEARS,F,BLACK OR AFRICAN AMERICAN,NOT HISPANIC OR LATINO,ARM3,Treatment 3,ARM3,Treatment 3,GQ,2025-01-17,2
STUDY001,DM,STUDY001-SUBJ0096,SUBJ0096,2025-03-04,2025-12-10,2025-10-26,2025-12-21,2025-10-06,2025-12-10,,,38,23,YEARS,M,WHITE,NOT HISPANIC OR LATINO,ARM3,Treatment 3,ARM3,Treatment 3,YE,2025-01-07,28
STUDY001,DM,STUDY001-SUBJ0097,SUBJ0097,2025-11-20,2025-12-28,2025-10-20,2026-01-04,2025-07-25,2025-12-28,,,2,65,YEARS,M,AMERICAN INDIAN OR ALASKA NATIVE,HISPANIC OR LATINO,ARM1,Treatment 1,ARM1,Treatment 1,MM,2025-06-03,12
STUDY001,DM,STUDY001-SUBJ0098,SUBJ0098,2025-02-24,2025-12-19,2025-04-29,2026-01-06,2025-05-02,2025-12-19,,,4,21,YEARS,F,ASIAN,NOT HISPANIC OR LATINO,ARM3,Treatment 3,ARM3,Treatment 3,HU,2025-10-06,6
STUDY001,DM,STUDY001-SUBJ0099,SUBJ0099,2025-11-06,2026-01-04,2025-04-22,2025-12-18,2025-08-22,2026-01-04,,,37,49,YEARS,F,BLACK OR AFRICAN AMERICAN,NOT HISPANIC OR LATINO,ARM1,Treatment 1,ARM1,Treatment 1,PS,2025-08-20,2
STUDY001,DM,STUDY001-SUBJ0100,SUBJ0100,2025-11-25,2025-12-19,2025-03-11,2025-12-20,2025-09-03,2025-12-19,,,1,80,YEARS,F,BLACK OR AFRICAN AMERICAN,HISPANIC OR LATINO,ARM2,Treatment 2,ARM2,Treatment 2,BI,2025-02-04,17
