STUDYID,DOMAIN,USUBJID,DDSEQ,DDTERM,DDECOD,DDCAT,DDSCAT,DDTCOD,DDSTDTC,DDSTDY,DDRELAT,DDMETHOD,DDAUTO,DDTOX,DDGRADU,DDEPIFL,DDDFTYP
STUDY001,DD,STUDY001-SUBJ0006,1,CEREBROVASCULAR ACCIDENT,CEREBROVASCULAR ACCIDENT,DEATH,,UNKNOWN,2026-02-01,67,NOT RELATED,VERBAL AUTOPSY,N,,SEVERE,N,AFTER STUDY
STUDY001,DD,STUDY001-SUBJ0054,1,CEREBROVASCULAR ACCIDENT,CEREBROVASCULAR ACCIDENT,DEATH,,PRIMARY,2026-02-12,333,NOT RELATED,MEDICAL RECORDS,N,,FATAL,N,AFTER STUDY
STUDY001,DD,STUDY001-SUBJ0096,1,SEPSIS,SEPSIS,DEATH,,SECONDARY,2025-11-07,140,NOT RELATED,MEDICAL RECORDS,N,,FATAL,N,DURING STUDY
