STUDYID,DOMAIN,USUBJID,SUBJID,RFSTDTC,RFENDTC,RFXSTDTC,RFXENDTC,RFICDTC,RFPENDTC,DTHDTC,DTHFL,SITEID,AGE,AGEU,SEX,RACE,ETHNIC,ARMCD,ARM,ACTARMCD,ACTARM,COUNTRY,DMDTC,DMDY
STUDY001,DM,STUDY001-SUBJ0001,SUBJ0001,2025-02-12,2026-01-02,2025-06-28,2026-01-03,2025-08-28,2026-01-02,,,31,61,YEARS,F,WHITE,HISPANIC OR LATINO,ARM3,Treatment 3,ARM3,Treatment 3,SO,2025-01-14,25
STUDY001,DM,STUDY001-SUBJ0002,SUBJ0002,2025-07-19,2025-12-21,2025-07-18,2025-12-09,2025-03-27,2025-12-21,,,17,47,YEARS,F,OTHER,HISPANIC OR LATINO,ARM2,Treatment 2,ARM2,Treatment 2,LC,2025-02-01,4
STUDY001,DM,STUDY001-SUBJ0003,SUBJ0003,2025-09-11,2025-12-25,2025-05-29,2025-12-17,2025-06-13,2025-12-25,,,38,22,YEARS,M,AMERICAN INDIAN OR ALASKA NATIVE,HISPANIC OR LATINO,ARM1,Treatment 1,ARM1,Treatment 1,AO,2025-04-28,12
STUDY001,DM,STUDY001-SUBJ0004,SUBJ0004,2025-06-28,2025-12-12,2025-03-29,2025-12-10,2025-11-03,2025-12-12,,,20,43,YEARS,M,OTHER,HISPANIC OR LATINO,ARM2,Treatment 2,ARM2,Treatment 2,ML,2025-09-24,12
STUDY001,DM,STUDY001-SUBJ0005,SUBJ0005,2025-05-08,2025-12-25,2025-03-23,2025-12-26,2025-02-21,2025-12-25,,,28,29,YEARS,M,WHITE,HISPANIC OR LATINO,ARM1,Treatment 1,ARM1,Treatment 1,AM,2025-06-02,23
STUDY001,DM,STUDY001-SUBJ0006,SUBJ0006,2025-06-01,2025-12-14,2025-11-05,2025-12-30,2025-04-11,2025-12-14,,,48,44,YEARS,M,ASIAN,HISPANIC OR LATINO,ARM2,Treatment 2,ARM2,Treatment 2,PA,2025-03-21,17
STUDY001,DM,STUDY001-SUBJ0007,SUBJ0007,2025-12-07,2025-12-08,2025-02-25,2025-12-12,2025-02-05,2025-12-08,,,5,69,YEARS,M,AMERICAN INDIAN OR ALASKA NATIVE,HISPANIC OR LATINO,ARM3,Treatment 3,ARM3,Treatment 3,AL,2025-04-07,7
STUDY001,DM,STUDY001-SUBJ0008,SUBJ0008,2025-11-02,2025-12-12,2025-03-06,2026-01-02,2025-03-23,2025-12-12,,,35,36,YEARS,F,BLACK OR AFRICAN AMERICAN,NOT HISPANIC OR LATINO,ARM2,Treatment 2,ARM2,Treatment 2,MN,2025-09-08,16
STUDY001,DM,STUDY001-SUBJ0009,SUBJ0009,2025-01-20,2025-12-16,2025-06-16,2025-12-22,2025-02-02,2025-12-16,,,44,45,YEARS,M,OTHER,NOT HISPANIC OR LATINO,ARM1,Treatment 1,ARM1,Treatment 1,JO,2025-01-13,1
STUDY001,DM,STUDY001-SUBJ0010,SUBJ0010,2025-08-14,2026-01-01,2025-11-02,2025-12-12,2025-05-14,2026-01-01,,,24,27,YEARS,M,WHITE,HISPANIC OR LATINO,ARM2,Treatment 2,ARM2,Treatment 2,BW,2025-05-24,21
STUDY001,DM,STUDY001-SUBJ0011,SUBJ0011,2025-01-24,2025-12-20,2025-03-26,2025-12-09,2025-05-30,2025-12-20,,,45,50,YEARS,M,OTHER,HISPANIC OR LATINO,ARM3,Treatment 3,ARM3,Treatment 3,CD,2025-11-17,19
STUDY001,DM,STUDY001-SUBJ0012,SUBJ0012,2025-07-02,2025-12-08,2025-01-07,2025-12-31,2025-07-19,2025-12-08,,,28,21,YEARS,F,BLACK OR AFRICAN AMERICAN,HISPANIC OR LATINO,ARM2,Treatment 2,ARM2,Treatment 2,AF,2025-08-24,1
STUDY001,DM,STUDY001-SUBJ0013,SUBJ0013,2025-03-18,2025-12-23,2025-07-14,2025-12-15,2025-08-20,2025-12-23,,,44,22,YEARS,F,WHITE,NOT HISPANIC OR LATINO,ARM3,Treatment 3,ARM3,Treatment 3,UY,2025-11-11,18
STUDY001,DM,STUDY001-SUBJ0014,SUBJ0014,2025-10-26,2025-12-23,2025-10-15,2025-12-23,2025-10-07,2025-12-23,,,50,33,YEARS,F,OTHER,HISPANIC OR LATINO,ARM3,Treatment 3,ARM3,Treatment 3,SR,2025-11-24,8
STUDY001,DM,STUDY001-SUBJ0015,SUBJ0015,2025-11-29,2025-12-24,2025-11-21,2025-12-15,2025-01-19,2025-12-24,,,49,53,YEARS,M,ASIAN,NOT HISPANIC OR LATINO,ARM3,Treatment 3,ARM3,Treatment 3,CI,2025-06-07,11
STUDY001,DM,STUDY001-SUBJ0016,SUBJ0016,2025-10-31,2026-01-02,2025-07-09,2026-01-05,2025-07-27,2026-01-02,,,26,66,YEARS,F,AMERICAN INDIAN OR ALASKA NATIVE,NOT HISPANIC OR LATINO,ARM3,Treatment 3,ARM3,Treatment 3,KG,2025-08-10,3
STUDY001,DM,STUDY001-SUBJ0017,SUBJ0017,2025-11-25,2025-12-09,2025-10-10,2025-12-21,2025-06-04,2025-12-09,,,20,38,YEARS,F,OTHER,NOT HISPANIC OR LATINO,ARM3,Treatment 3,ARM3,Treatment 3,LS,2025-11-03,12
STUDY001,DM,STUDY001-SUBJ0018,SUBJ0018,2025-05-16,2025-12-10,2025-03-26,2025-12-31,2025-02-20,2025-12-10,,,25,79,YEARS,M,BLACK OR AFRICAN AMERICAN,NOT HISPANIC OR LATINO,ARM1,Treatment 1,ARM1,Treatment 1,LI,2025-06-27,28
STUDY001,DM,STUDY001-SUBJ0019,SUBJ0019,2025-06-20,2025-12-20,2025-11-10,2025-12-19,2025-10-05,2025-12-20,,,15,26,YEARS,F,ASIAN,HISPANIC OR LATINO,ARM2,Treatment 2,ARM2,Treatment 2,IS,2025-05-17,27
STUDY001,DM,STUDY001-SUBJ0020,SUBJ0020,2025-11-16,2025-12-21,2025-06-18,2026-01-04,2025-06-25,2025-12-21,,,4,24,YEARS,M,AMERICAN INDIAN OR ALASKA NATIVE,HISPANIC OR LATINO,ARM2,Treatment 2,ARM2,Treatment 2,KH,2025-02-12,8
STUDY001,DM,STUDY001-SUBJ0021,SUBJ0021,2025-04-18,2025-12-27,2025-08-22,2025-12-13,2025-11-06,2025-12-27,,,18,78,YEARS,M,WHITE,NOT HISPANIC OR LATINO,ARM3,Treatment 3,ARM3,Treatment 3,KZ,2025-05-03,8
STUDY001,DM,STUDY001-SUBJ0022,SUBJ0022,2025-01-31,2025-12-10,2025-04-06,2025-12-22,2025-04-30,2025-12-10,,,20,74,YEARS,F,WHITE,NOT HISPANIC OR LATINO,ARM2,Treatment 2,ARM2,Treatment 2,SM,2025-01-18,2
STUDY001,DM,STUDY001-SUBJ0023,SUBJ0023,2025-06-22,2025-12-12,2025-09-20,2025-12-10,2025-05-29,2025-12-12,,,18,79,YEARS,F,OTHER,HISPANIC OR LATINO,ARM1,Treatment 1,ARM1,Treatment 1,NR,2025-02-09,28
STUDY001,DM,STUDY001-SUBJ0024,SUBJ0024,2025-07-21,2026-01-06,2025-11-06,2025-12-16,2025-08-04,2026-01-06,,,2,60,YEARS,F,WHITE,HISPANIC OR LATINO,ARM1,Treatment 1,ARM1,Treatment 1,NI,2025-06-22,28
STUDY001,DM,STUDY001-SUBJ0025,SUBJ0025,2025-01-25,2025-12-30,2025-07-26,2026-01-03,2025-05-17,2025-12-30,,,24,59,YEARS,M,ASIAN,HISPANIC OR LATINO,ARM1,Treatment 1,ARM1,Treatment 1,AE,2025-05-24,16
STUDY001,DM,STUDY001-SUBJ0026,SUBJ0026,2025-05-28,2025-12-08,2025-06-19,2025-12-25,2025-02-03,2025-12-08,,,24,27,YEARS,F,OTHER,HISPANIC OR LATINO,ARM3,Treatment 3,ARM3,Treatment 3,GN,2025-07-23,19
STUDY001,DM,STUDY001-SUBJ0027,SUBJ0027,2025-08-31,2025-12-26,2025-03-16,2025-12-31,2025-01-20,2025-12-26,,,15,55,YEARS,F,WHITE,HISPANIC OR LATINO,ARM3,Treatment 3,ARM2,Treatment 2,DK,2025-03-02,9
STUDY001,DM,STUDY001-SUBJ0028,SUBJ0028,2025-04-14,2025-12-10,2025-01-12,2025-12-12,2025-01-23,2025-12-10,,,14,41,YEARS,M,WHITE,NOT HISPANIC OR LATINO,ARM3,Treatment 3,ARM3,Treatment 3,ZA,2025-05-31,18
STUDY001,DM,STUDY001-SUBJ0029,SUBJ0029,2025-10-27,2025-12-21,2025-10-05,2026-01-02,2025-07-24,2025-12-21,,,2,35,YEARS,F,AMERICAN INDIAN OR ALASKA NATIVE,HISPANIC OR LATINO,ARM1,Treatment 1,ARM1,Treatment 1,BS,2025-08-26,9
STUDY001,DM,STUDY001-SUBJ0030,SUBJ0030,2025-03-13,2025-12-09,2025-09-27,2025-12-24,2025-01-13,2025-12-09,,,37,41,YEARS,F,ASIAN,NOT HISPANIC OR LATINO,ARM3,Treatment 3,ARM3,Treatment 3,BT,2025-07-15,9
STUDY001,DM,STUDY001-SUBJ0031,SUBJ0031,2025-07-04,2025-12-23,2025-03-06,2025-12-11,2025-02-20,2025-12-23,,,26,69,YEARS,M,WHITE,HISPANIC OR LATINO,ARM1,Treatment 1,ARM1,Treatment 1,MH,2025-11-13,13
STUDY001,DM,STUDY001-SUBJ0032,SUBJ0032,2025-05-12,2025-12-28,2025-10-31,2025-12-18,2025-08-07,2025-12-28,,,13,44,YEARS,F,ASIAN,NOT HISPANIC OR LATINO,ARM3,Treatment 3,ARM3,Treatment 3,SK,2025-06-28,29
STUDY001,DM,STUDY001-SUBJ0033,SUBJ0033,2025-10-31,2025-12-14,2025-10-06,2025-12-29,2025-11-27,2025-12-14,,,22,43,YEARS,F,WHITE,HISPANIC OR LATINO,ARM2,Treatment 2,ARM2,Treatment 2,BO,2025-08-05,4
STUDY001,DM,STUDY001-SUBJ0034,SUBJ0034,2025-08-26,2025-12-13,2025-01-08,2025-12-20,2025-10-31,2025-12-13,,,11,71,YEARS,M,WHITE,HISPANIC OR LATINO,ARM3,Treatment 3,ARM3,Treatment 3,SG,2025-11-11,22
STUDY001,DM,STUDY001-SUBJ0035,SUBJ0035,2025-02-20,2025-12-17,2025-07-23,2025-12-13,2025-02-07,2025-12-17,,,43,48,YEARS,M,WHITE,NOT HISPANIC OR LATINO,ARM3,Treatment 3,ARM3,Treatment 3,GM,2025-06-17,5
STUDY001,DM,STUDY001-SUBJ0036,SUBJ0036,2025-02-02,2026-01-02,2025-09-19,2025-12-12,2025-05-22,2026-01-02,,,10,38,YEARS,M,BLACK OR AFRICAN AMERICAN,NOT HISPANIC OR LATINO,ARM1,Treatment 1,ARM1,Treatment 1,CI,2025-02-10,22
STUDY001,DM,STUDY001-SUBJ0037,SUBJ0037,2025-10-31,2025-12-26,2025-10-28,2025-12-10,2025-01-23,2025-12-26,,,33,27,YEARS,F,ASIAN,NOT HISPANIC OR LATINO,ARM1,Treatment 1,ARM1,Treatment 1,TN,2025-03-02,29
STUDY001,DM,STUDY001-SUBJ0038,SUBJ0038,2025-03-26,2026-01-03,2025-11-03,2025-12-13,2025-03-23,2026-01-03,,,39,79,YEARS,F,OTHER,HISPANIC OR LATINO,ARM2,Treatment 2,ARM3,Treatment 3,MY,2025-08-02,26
STUDY001,DM,STUDY001-SUBJ0039,SUBJ0039,2025-07-03,2026-01-02,2025-10-02,2025-12-23,2025-03-05,2026-01-02,,,33,36,YEARS,M,BLACK OR AFRICAN AMERICAN,HISPANIC OR LATINO,ARM3,Treatment 3,ARM3,Treatment 3,SN,2025-05-24,6
STUDY001,DM,STUDY001-SUBJ0040,SUBJ0040,2025-10-03,2025-12-08,2025-01-07,2025-12-25,2025-04-10,2025-12-08,,,19,23,YEARS,M,ASIAN,NOT HISPANIC OR LATINO,ARM2,Treatment 2,ARM2,Treatment 2,MX,2025-03-24,12
STUDY001,DM,STUDY001-SUBJ0041,SUBJ0041,2025-07-14,2025-12-22,2025-02-06,2026-01-05,2025-06-11,2025-12-22,,,10,44,YEARS,M,AMERICAN INDIAN OR ALASKA NATIVE,NOT HISPANIC OR LATINO,ARM1,Treatment 1,ARM1,Treatment 1,LI,2025-02-06,24
STUDY001,DM,STUDY001-SUBJ0042,SUBJ0042,2025-04-25,2025-12-08,2025-07-30,2025-12-08,2025-10-09,2025-12-08,,,19,26,YEARS,F,ASIAN,NOT HISPANIC OR LATINO,ARM2,Treatment 2,ARM2,Treatment 2,TL,2025-07-20,29
STUDY001,DM,STUDY001-SUBJ0043,SUBJ0043,2025-02-21,2025-12-13,2025-06-12,2026-01-06,2025-07-02,2025-12-13,,,2,59,YEARS,M,WHITE,HISPANIC OR LATINO,ARM1,Treatment 1,ARM1,Treatment 1,SY,2025-04-12,2
STUDY001,DM,STUDY001-SUBJ0044,SUBJ0044,2025-11-04,2025-12-11,2025-05-30,2025-12-09,2025-08-29,2025-12-11,,,49,39,YEARS,M,BLACK OR AFRICAN AMERICAN,NOT HISPANIC OR LATINO,ARM2,Treatment 2,ARM2,Treatment 2,LU,2025-02-27,10
STUDY001,DM,STUDY001-SUBJ0045,SUBJ0045,2025-04-18,2025-12-15,2025-01-23,2025-12-15,2025-04-28,2025-12-15,,,18,71,YEARS,F,WHITE,NOT HISPANIC OR LATINO,ARM2,Treatment 2,ARM2,Treatment 2,BS,2025-04-17,29
STUDY001,DM,STUDY001-SUBJ0046,SUBJ0046,2025-11-05,2025-12-27,2025-12-02,2025-12-10,2025-07-03,2025-12-27,,,47,66,YEARS,M,WHITE,NOT HISPANIC OR LATINO,ARM2,Treatment 2,ARM2,Treatment 2,UY,2025-04-26,25
STUDY001,DM,STUDY001-SUBJ0047,SUBJ0047,2025-04-13,2025-12-31,2025-06-09,2025-12-24,2025-01-25,2025-12-31,,,34,24,YEARS,F,AMERICAN INDIAN OR ALASKA NATIVE,HISPANIC OR LATINO,ARM2,Treatment 2,ARM2,Treatment 2,JM,2025-10-02,30
STUDY001,DM,STUDY001-SUBJ0048,SUBJ0048,2025-02-06,2026-01-06,2025-11-05,2025-12-29,2025-05-27,2026-01-06,,,16,23,YEARS,M,AMERICAN INDIAN OR ALASKA NATIVE,HISPANIC OR LATINO,ARM3,Treatment 3,ARM3,Treatment 3,SD,2025-10-08,11
STUDY001,DM,STUDY001-SUBJ0049,SUBJ0049,2025-11-16,2025-12-18,2025-06-10,2025-12-11,2025-06-17,2025-12-18,,,1,78,YEARS,M,OTHER,HISPANIC OR LATINO,ARM1,Treatment 1,ARM1,Treatment 1,BD,2025-01-14,9
STUDY001,DM,STUDY001-SUBJ0050,SUBJ0050,2025-08-06,2026-01-06,2025-09-09,2025-12-30,2025-02-13,2026-01-06,,,25,60,YEARS,F,OTHER,NOT HISPANIC OR LATINO,ARM1,Treatment 1,ARM1,Treatment 1,NO,2025-04-21,3
STUDY001,DM,STUDY001-SUBJ0051,SUBJ0051,2025-10-12,2025-12-10,2025-01-15,2025-12-27,2025-09-27,2025-12-10,,,19,63,YEARS,F,ASIAN,HISPANIC OR LATINO,ARM1,Treatment 1,ARM1,Treatment 1,VA,2025-02-01,7
STUDY001,DM,STUDY001-SUBJ0052,SUBJ0052,2025-03-20,2026-01-05,2025-07-06,2026-01-01,2025-06-19,2026-01-05,,,28,30,YEARS,F,OTHER,HISPANIC OR LATINO,ARM1,Treatment 1,ARM1,Treatment 1,EE,2025-12-05,3
STUDY001,DM,STUDY001-SUBJ0053,SUBJ0053,2025-09-21,2025-12-11,2025-01-18,2025-12-09,2025-08-04,2025-12-11,,,19,40,YEARS,F,OTHER,NOT HISPANIC OR LATINO,ARM2,Treatment 2,ARM2,Treatment 2,DO,2025-04-22,20
STUDY001,DM,STUDY001-SUBJ0054,SUBJ0054,2025-09-13,2025-12-15,2025-02-08,2025-12-31,2025-03-24,2025-12-15,,,46,43,YEARS,M,OTHER,NOT HISPANIC OR LATINO,ARM1,Treatment 1,ARM1,Treatment 1,DE,2025-01-24,17
STUDY001,DM,STUDY001-SUBJ0055,SUBJ0055,2025-08-16,2025-12-21,2025-04-20,2026-01-04,2025-08-19,2025-12-21,,,17,40,YEARS,M,AMERICAN INDIAN OR ALASKA NATIVE,HISPANIC OR LATINO,ARM2,Treatment 2,ARM2,Treatment 2,BR,2025-01-31,9
STUDY001,DM,STUDY001-SUBJ0056,SUBJ0056,2025-07-26,2025-12-23,2025-11-30,2025-12-08,2025-04-03,2025-12-23,,,50,57,YEARS,M,ASIAN,HISPANIC OR LATINO,ARM3,Treatment 3,ARM3,Treatment 3,DE,2025-01-18,19
STUDY001,DM,STUDY001-SUBJ0057,SUBJ0057,2025-01-14,2025-12-22,2025-11-03,2025-12-16,2025-11-28,2025-12-22,,,16,44,YEARS,F,WHITE,NOT HISPANIC OR LATINO,ARM2,Treatment 2,ARM2,Treatment 2,SR,2025-11-24,8
STUDY001,DM,STUDY001-SUBJ0058,SUBJ0058,2025-01-15,2025-12-27,2025-02-19,2025-12-27,2025-01-22,2025-12-27,,,46,38,YEARS,F,ASIAN,NOT HISPANIC OR LATINO,ARM2,Treatment 2,ARM2,Treatment 2,SZ,2025-07-02,17
STUDY001,DM,STUDY001-SUBJ0059,SUBJ0059,2025-10-18,2025-12-22,2025-03-20,2025-12-27,2025-01-19,2025-12-22,,,33,44,YEARS,F,ASIAN,HISPANIC OR LATINO,ARM1,Treatment 1,ARM1,Treatment 1,SN,2025-06-12,18
STUDY001,DM,STUDY001-SUBJ0060,SUBJ0060,2025-06-21,2025-12-31,2025-01-08,2026-01-02,2025-10-05,2025-12-31,,,36,36,YEARS,F,BLACK OR AFRICAN AMERICAN,NOT HISPANIC OR LATINO,ARM2,Treatment 2,ARM2,Treatment 2,VN,2025-06-05,6
STUDY001,DM,STUDY001-SUBJ0061,SUBJ0061,2025-04-07,2025-12-12,2025-12-04,2026-01-06,2025-08-05,2025-12-12,,,6,65,YEARS,M,OTHER,HISPANIC OR LATINO,ARM2,Treatment 2,ARM2,Treatment 2,IS,2025-08-04,19
STUDY001,DM,STUDY001-SUBJ0062,SUBJ0062,2025-02-27,2025-12-16,2025-09-26,2026-01-01,2025-10-25,2025-12-16,,,36,18,YEARS,M,OTHER,HISPANIC OR LATINO,ARM1,Treatment 1,ARM1,Treatment 1,IN,2025-06-24,5
STUDY001,DM,STUDY001-SUBJ0063,SUBJ0063,2025-06-25,2025-12-31,2025-02-23,2025-12-27,2025-11-18,2025-12-31,,,22,30,YEARS,M,BLACK OR AFRICAN AMERICAN,NOT HISPANIC OR LATINO,ARM3,Treatment 3,ARM3,Treatment 3,NG,2025-11-26,2
STUDY001,DM,STUDY001-SUBJ0064,SUBJ0064,2025-06-29,2025-12-15,2025-07-31,2025-12-10,2025-07-31,2025-12-15,,,36,50,YEARS,F,BLACK OR AFRICAN AMERICAN,NOT HISPANIC OR LATINO,ARM1,Treatment 1,ARM1,Treatment 1,CI,2025-02-18,22
STUDY001,DM,STUDY001-SUBJ0065,SUBJ0065,2025-11-25,2025-12-26,2025-11-06,2025-12-29,2025-09-27,2025-12-26,,,17,31,YEARS,M,WHITE,NOT HISPANIC OR LATINO,ARM3,Treatment 3,ARM3,Treatment 3,KZ,2025-01-12,17
STUDY001,DM,STUDY001-SUBJ0066,SUBJ0066,2025-03-04,2025-12-24,2025-09-17,2026-01-03,2025-07-20,2025-12-24,,,11,47,YEARS,M,BLACK OR AFRICAN AMERICAN,NOT HISPANIC OR LATINO,ARM1,Treatment 1,ARM1,Treatment 1,LI,2025-08-27,21
STUDY001,DM,STUDY001-SUBJ0067,SUBJ0067,2025-07-04,2025-12-30,2025-07-27,2025-12-18,2025-01-21,2025-12-30,,,38,45,YEARS,M,ASIAN,HISPANIC OR LATINO,ARM3,Treatment 3,ARM3,Treatment 3,DK,2025-10-18,28
STUDY001,DM,STUDY001-SUBJ0068,SUBJ0068,2025-06-30,2025-12-08,2025-03-25,2025-12-29,2025-02-07,2025-12-08,,,15,61,YEARS,M,AMERICAN INDIAN OR ALASKA NATIVE,HISPANIC OR LATINO,ARM1,Treatment 1,ARM1,Treatment 1,DZ,2025-10-31,11
STUDY001,DM,STUDY001-SUBJ0069,SUBJ0069,2025-03-11,2025-12-27,2025-04-22,2025-12-27,2025-05-16,2025-12-27,,,47,23,YEARS,F,AMERICAN INDIAN OR ALASKA NATIVE,NOT HISPANIC OR LATINO,ARM2,Treatment 2,ARM2,Treatment 2,DM,2025-10-23,28
STUDY001,DM,STUDY001-SUBJ0070,SUBJ0070,2025-11-06,2025-12-21,2025-08-01,2026-01-05,2025-01-06,2025-12-21,,,1,45,YEARS,F,BLACK OR AFRICAN AMERICAN,NOT HISPANIC OR LATINO,ARM2,Treatment 2,ARM2,Treatment 2,MC,2025-06-11,2
STUDY001,DM,STUDY001-SUBJ0071,SUBJ0071,2025-09-12,2025-12-21,2025-07-12,2025-12-21,2025-02-27,2025-12-21,,,13,19,YEARS,M,BLACK OR AFRICAN AMERICAN,NOT HISPANIC OR LATINO,ARM1,Treatment 1,ARM1,Treatment 1,LS,2025-06-19,8
STUDY001,DM,STUDY001-SUBJ0072,SUBJ0072,2025-03-06,2025-12-21,2025-06-20,2025-12-10,2025-07-11,2025-12-21,,,10,33,YEARS,M,BLACK OR AFRICAN AMERICAN,HISPANIC OR LATINO,ARM1,Treatment 1,ARM2,Treatment 2,VE,2025-10-13,9
STUDY001,DM,STUDY001-SUBJ0073,SUBJ0073,2025-03-24,2025-12-22,2025-08-18,2025-12-21,2025-11-26,2025-12-22,,,43,77,YEARS,F,OTHER,NOT HISPANIC OR LATINO,ARM2,Treatment 2,ARM2,Treatment 2,UA,2025-10-26,12
STUDY001,DM,STUDY001-SUBJ0074,SUBJ0074,2025-08-03,2026-01-02,2025-10-10,2026-01-05,2025-05-19,2026-01-02,,,28,79,YEARS,M,WHITE,HISPANIC OR LATINO,ARM2,Treatment 2,ARM2,Treatment 2,VN,2025-01-07,17
STUDY001,DM,STUDY001-SUBJ0075,SUBJ0075,2025-04-10,2026-01-01,2025-03-20,2025-12-10,2025-09-27,2026-01-01,,,17,51,YEARS,F,ASIAN,HISPANIC OR LATINO,ARM3,Treatment 3,ARM3,Treatment 3,MW,2025-06-16,4
STUDY001,DM,STUDY001-SUBJ0076,SUBJ0076,2025-11-01,2025-12-26,2025-09-21,2025-12-26,2025-10-01,2025-12-26,,,6,51,YEARS,M,AMERICAN INDIAN OR ALASKA NATIVE,HISPANIC OR LATINO,ARM1,Treatment 1,ARM2,Treatment 2,RO,2025-06-17,8
STUDY001,DM,STUDY001-SUBJ0077,SUBJ0077,2025-06-20,2025-12-20,2025-11-12,2025-12-28,2025-09-22,2025-12-20,,,21,50,YEARS,M,ASIAN,HISPANIC OR LATINO,ARM1,Treatment 1,ARM1,Treatment 1,FM,2025-11-19,28
STUDY001,DM,STUDY001-SUBJ0078,SUBJ0078,2025-03-30,2026-01-03,2025-07-02,2025-12-09,2025-08-29,2026-01-03,,,27,62,YEARS,F,BLACK OR AFRICAN AMERICAN,HISPANIC OR LATINO,ARM2,Treatment 2,ARM2,Treatment 2,MM,2025-11-29,22
STUDY001,DM,STUDY001-SUBJ0079,SUBJ0079,2025-02-18,2026-01-02,2025-03-10,2025-12-19,2025-02-06,2026-01-02,,,4,65,YEARS,M,BLACK OR AFRICAN AMERICAN,NOT HISPANIC OR LATINO,ARM2,Treatment 2,ARM2,Treatment 2,TL,2025-05-23,27
STUDY001,DM,STUDY001-SUBJ0080,SUBJ0080,2025-04-24,2025-12-09,2025-04-21,2025-12-23,2025-08-11,2025-12-09,,,21,74,YEARS,M,BLACK OR AFRICAN AMERICAN,HISPANIC OR LATINO,ARM2,Treatment 2,ARM2,Treatment 2,IE,2025-01-12,19
STUDY001,DM,STUDY001-SUBJ0081,SUBJ0081,2025-08-14,2026-01-02,2025-07-09,2025-12-08,2025-01-12,2026-01-02,,,29,29,YEARS,F,WHITE,HISPANIC OR LATINO,ARM3,Treatment 3,ARM3,Treatment 3,NZ,2025-12-03,3
STUDY001,DM,STUDY001-SUBJ0082,SUBJ0082,2025-05-06,2025-12-15,2025-09-01,2025-12-09,2025-04-06,2025-12-15,,,31,42,YEARS,M,OTHER,NOT HISPANIC OR LATINO,ARM3,Treatment 3,ARM3,Treatment 3,SZ,2025-05-20,27
STUDY001,DM,STUDY001-SUBJ0083,SUBJ0083,2025-11-19,2025-12-13,2025-05-12,2026-01-01,2025-10-08,2025-12-13,,,28,23,YEARS,M,ASIAN,HISPANIC OR LATINO,ARM1,Treatment 1,ARM1,Treatment 1,TN,2025-04-06,13
STUDY001,DM,STUDY001-SUBJ0084,SUBJ0084,2025-04-27,2025-12-30,2025-11-11,2025-12-22,2025-08-24,2025-12-30,,,23,71,YEARS,M,BLACK OR AFRICAN AMERICAN,HISPANIC OR LATINO,ARM3,Treatment 3,ARM3,Treatment 3,AM,2025-09-21,8
STUDY001,DM,STUDY001-SUBJ0085,SUBJ0085,2025-01-10,2025-12-08,2025-01-16,2025-12-23,2025-04-28,2025-12-08,,,25,77,YEARS,F,AMERICAN INDIAN OR ALASKA NATIVE,HISPANIC OR LATINO,ARM3,Treatment 3,ARM3,Treatment 3,SO,2025-06-17,26
STUDY001,DM,STUDY001-SUBJ0086,SUBJ0086,2025-10-27,2025-12-11,2025-01-22,2025-12-22,2025-10-14,2025-12-11,,,28,65,YEARS,F,OTHER,HISPANIC OR LATINO,ARM2,Treatment 2,ARM2,Treatment 2,PL,2025-09-13,4
STUDY001,DM,STUDY001-SUBJ0087,SUBJ0087,2025-09-29,2025-12-15,2025-10-06,2025-12-13,2025-07-04,2025-12-15,,,11,65,YEARS,F,BLACK OR AFRICAN AMERICAN,NOT HISPANIC OR LATINO,ARM3,Treatment 3,ARM3,Treatment 3,ID,2025-03-12,28
STUDY001,DM,STUDY001-SUBJ0088,SUBJ0088,2025-02-27,2025-12-28,2025-07-12,2026-01-06,2025-10-29,2025-12-28,,,9,28,YEARS,F,BLACK OR AFRICAN AMERICAN,HISPANIC OR LATINO,ARM1,Treatment 1,ARM1,Treatment 1,TJ,2025-10-17,9
STUDY001,DM,STUDY001-SUBJ0089,SUBJ0089,2025-03-06,2025-12-23,2025-04-25,2025-12-27,2025-06-04,2025-12-23,,,4,26,YEARS,F,WHITE,NOT HISPANIC OR LATINO,ARM2,Treatment 2,ARM2,Treatment 2,IR,2025-06-08,8
STUDY001,DM,STUDY001-SUBJ0090,SUBJ0090,2025-11-09,2025-12-25,2025-11-20,2025-12-15,2025-02-21,2025-12-25,,,17,61,YEARS,M,ASIAN,HISPANIC OR LATINO,ARM3,Treatment 3,ARM3,Treatment 3,BZ,2025-03-17,2
STUDY001,DM,STUDY001-SUBJ0091,SUBJ0091,2025-11-19,2026-01-04,2025-05-27,2026-01-03,2025-11-22,2026-01-04,,,10,66,YEARS,M,BLACK OR AFRICAN AMERICAN,HISPANIC OR LATINO,ARM2,Treatment 2,ARM2,Treatment 2,UA,2025-12-06,5
STUDY001,DM,STUDY001-SUBJ0092,SUBJ0092,2025-12-02,2026-01-04,2025-11-14,2026-01-03,2025-05-14,2026-01-04,,,12,28,YEARS,M,BLACK OR AFRICAN AMERICAN,NOT HISPANIC OR LATINO,ARM1,Treatment 1,ARM1,Treatment 1,ZA,2025-11-23,10
STUDY001,DM,STUDY001-SUBJ0093,SUBJ0093,2025-03-07,2025-12-11,2025-03-01,2025-12-20,2025-08-29,2025-12-11,,,32,32,YEARS,M,BLACK OR AFRICAN AMERICAN,NOT HISPANIC OR LATINO,ARM3,Treatment 3,ARM3,Treatment 3,CF,2025-07-06,3
STUDY001,DM,STUDY001-SUBJ0094,SUBJ0094,2025-11-04,2025-12-20,2025-11-02,2025-12-24,2025-10-02,2025-12-20,,,47,61,YEARS,F,AMERICAN INDIAN OR ALASKA NATIVE,NOT HISPANIC OR LATINO,ARM1,Treatment 1,ARM1,Treatment 1,PW,2025-09-14,11
STUDY001,DM,STUDY001-SUBJ0095,SUBJ0095,2025-10-02,2025-12-22,2025-03-12,2026-01-06,2025-07-29,2025-12-22,,,26,51,YEARS,M,BLACK OR AFRICAN AMERICAN,HISPANIC OR LATINO,ARM2,Treatment 2,ARM2,Treatment 2,DZ,2025-02-04,22
STUDY001,DM,STUDY001-SUBJ0096,SUBJ0096,2025-02-05,2025-12-23,2025-03-13,2025-12-18,2025-05-30,2025-12-23,,,43,28,YEARS,M,ASIAN,NOT HISPANIC OR LATINO,ARM1,Treatment 1,ARM1,Treatment 1,SI,2025-06-28,1
STUDY001,DM,STUDY001-SUBJ0097,SUBJ0097,2025-07-12,2025-12-21,2025-02-21,2025-12-14,2025-07-01,2025-12-21,,,32,52,YEARS,F,ASIAN,HISPANIC OR LATINO,ARM3,Treatment 3,ARM3,Treatment 3,CN,2025-02-10,17
STUDY001,DM,STUDY001-SUBJ0098,SUBJ0098,2025-10-19,2025-12-20,2025-09-26,2025-12-12,2025-01-27,2025-12-20,,,31,68,YEARS,F,WHITE,HISPANIC OR LATINO,ARM1,Treatment 1,ARM1,Treatment 1,CF,2025-08-17,4
STUDY001,DM,STUDY001-SUBJ0099,SUBJ0099,2025-10-12,2025-12-26,2025-09-06,2026-01-01,2025-07-30,2025-12-26,,,20,75,YEARS,F,OTHER,HISPANIC OR LATINO,ARM3,Treatment 3,ARM3,Treatment 3,TL,2025-09-28,18
STUDY001,DM,STUDY001-SUBJ0100,SUBJ0100,2025-04-01,2026-01-04,2025-07-17,2025-12-17,2025-08-24,2026-01-04,,,34,43,YEARS,M,OTHER,HISPANIC OR LATINO,ARM3,Treatment 3,ARM3,Treatment 3,PT,2025-01-18,25
